"Time (s)","Acceleration x (m/s^2)","Acceleration y (m/s^2)","Acceleration z (m/s^2)","Absolute acceleration (m/s^2)"
0.000000000E0,-6.552744865E0,3.519243956E0,4.843372345E0,8.875911162E0
0.000000000E0,-6.552744865E0,3.468994617E0,5.094618320E0,8.995972697E0
0.000000000E0,-6.485745907E0,3.385245800E0,5.405984402E0,9.096672823E0
0.000000000E0,-6.329913139E0,3.299104214E0,5.774479389E0,9.181312607E0
0.000000000E0,-6.107380867E0,3.229712248E0,6.183950901E0,9.272129799E0
0.000000000E0,-5.855835438E0,3.167499065E0,6.586244106E0,9.364959713E0
0.000000000E0,-5.599802971E0,3.095714331E0,6.959524632E0,9.453899916E0
0.000000000E0,-5.350949764E0,3.035594702E0,7.309175968E0,9.553614599E0
0.000000000E0,-5.128118038E0,2.985345364E0,7.642077446E0,9.675289621E0
0.000000000E0,-4.874478817E0,3.002095222E0,7.948358536E0,9.795382732E0
0.000000000E0,-4.610969067E0,3.028416157E0,8.202297211E0,9.884837868E0
0.000000000E0,-4.342973232E0,3.085843801E0,8.412865639E0,9.957919297E0
7.025010000E-4,-4.091427803E0,3.160320520E0,8.606683731E0,1.004004044E1
3.226512000E-3,-3.897608995E0,3.258426189E0,8.786444664E0,1.014939934E1
5.750522000E-3,-3.737289906E0,3.380460262E0,8.937192917E0,1.026003239E1
8.274532000E-3,-3.581457376E0,3.504886866E0,9.075976372E0,1.036746912E1
1.079854300E-2,-3.449851990E0,3.631706476E0,9.188439369E0,1.046509382E1
1.332255300E-2,-3.339782238E0,3.775574923E0,9.308379173E0,1.058560505E1
1.584656400E-2,-3.265604734E0,3.880859137E0,9.411270142E0,1.069098908E1
1.837057400E-2,-3.224926710E0,3.978965044E0,9.495018959E0,1.078831313E1
2.089458500E-2,-3.229712248E0,4.031607151E0,9.554840088E0,1.086185373E1
2.341854300E-2,-3.248854876E0,4.029214382E0,9.573982239E0,1.088350874E1
2.594250100E-2,-3.284747362E0,3.993321896E0,9.480662346E0,1.079903438E1
2.846646000E-2,-3.346960783E0,3.943072557E0,9.308379173E0,1.064875065E1
3.099036600E-2,-3.440280676E0,3.868895054E0,9.066405296E0,1.044047820E1
3.351427200E-2,-3.569493294E0,3.730111361E0,8.803194046E0,1.020545141E1
3.603817800E-2,-3.677469254E0,3.602992773E0,8.522934914E0,9.957196221E0
3.856208500E-2,-3.821038723E0,3.514458179E0,8.281260490E0,9.773997572E0
4.108599100E-2,-3.978965044E0,3.401995659E0,8.022536278E0,9.579500280E0
4.360989700E-2,-4.103391647E0,3.294318676E0,7.761718273E0,9.377346592E0
4.613380300E-2,-3.770789385E0,3.189034462E0,7.213462830E0,8.742015750E0
4.865771000E-2,-3.744468451E0,3.143570662E0,6.760920525E0,8.343448137E0
5.118161600E-2,-4.096213341E0,3.059522867E0,6.658029079E0,8.394581296E0
5.370552200E-2,-4.543970108E0,3.002095222E0,6.614958286E0,8.568425363E0
5.622942800E-2,-4.998905659E0,2.956631422E0,6.586244106E0,8.781192321E0
5.875333500E-2,-5.386841774E0,2.925524712E0,6.576673031E0,8.990516520E0
6.127724100E-2,-5.623731613E0,2.915953398E0,6.516852379E0,9.088372044E0
6.380114700E-2,-5.736194134E0,2.923131943E0,6.420840263E0,9.092624109E0
6.632505300E-2,-5.745765209E0,2.906382322E0,6.282056808E0,8.995838693E0
6.884896000E-2,-5.702694416E0,2.863311291E0,6.157629967E0,8.867676243E0
7.137286600E-2,-5.626124382E0,2.793919563E0,6.033203125E0,8.709695864E0
7.389677200E-2,-5.559125423E0,2.700599432E0,5.911169052E0,8.552136127E0
7.642067800E-2,-5.535196781E0,2.588136673E0,5.846263885E0,8.456692986E0
7.894458500E-2,-5.559125423E0,2.499303341E0,5.805585861E0,8.417554268E0
8.146849100E-2,-5.539982796E0,2.446661234E0,5.779264927E0,8.371228325E0
8.399239700E-2,-5.511268616E0,2.427518606E0,5.767300606E0,8.338386212E0
8.651635500E-2,-5.429912567E0,2.456232548E0,5.796014786E0,8.313291539E0
8.904031400E-2,-5.350949764E0,2.475374937E0,5.827121258E0,8.289480479E0
9.156427200E-2,-5.264508724E0,2.530709028E0,5.865406513E0,8.277833887E0
9.408823000E-2,-5.178367138E0,2.571387053E0,5.949454308E0,8.295994464E0
9.661218900E-2,-5.085047245E0,2.619243383E0,6.064310074E0,8.336306020E0
9.913614700E-2,-4.998905659E0,2.669492722E0,6.186343670E0,8.389642256E0
1.016601050E-1,-4.891228676E0,2.710170746E0,6.346662998E0,8.458680432E0
1.041840640E-1,-4.654039860E0,2.664707184E0,6.512066841E0,8.436098976E0
1.067080220E-1,-4.429114819E0,2.657528639E0,6.679564476E0,8.443701684E0
1.092319800E-1,-4.350151539E0,2.784348249E0,6.830312252E0,8.563269180E0
1.117559390E-1,-4.319045067E0,2.915953398E0,6.978667259E0,8.709691798E0
1.142798970E-1,-4.259224415E0,3.028416157E0,7.120142937E0,8.832255231E0
1.168038550E-1,-4.163212299E0,3.136392355E0,7.206284523E0,8.893808536E0
1.193278140E-1,-4.055535316E0,3.253640652E0,7.261319637E0,8.930862616E0
1.218517720E-1,-3.902394533E0,3.325425386E0,7.311568737E0,8.930071360E0
1.243757300E-1,-3.744468451E0,3.370888948E0,7.361817837E0,8.920779010E0
1.268996890E-1,-3.559921980E0,3.437887907E0,7.435995579E0,8.932309221E0
1.294236470E-1,-3.382853031E0,3.497708559E0,7.531708241E0,8.966843860E0
1.319476050E-1,-3.184248686E0,3.547957659E0,7.601399422E0,8.972664956E0
1.344715640E-1,-3.033201694E0,3.636492252E0,7.735397339E0,9.069771795E0
1.369955220E-1,-2.896811008E0,3.744468451E0,7.922037601E0,9.228826456E0
1.395194800E-1,-2.817847729E0,3.849752426E0,8.070392609E0,9.375078476E0
1.420434390E-1,-2.719742060E0,3.955036640E0,8.089534760E0,9.406374664E0
1.445673970E-1,-2.681456804E0,4.043570995E0,8.075178146E0,9.420678271E0
1.470913550E-1,-2.645564556E0,4.134498596E0,8.051250458E0,9.429513476E0
1.496153140E-1,-2.635993242E0,4.184747696E0,8.003393173E0,9.408234475E0
1.521392720E-1,-2.667099953E0,4.172783375E0,7.998608112E0,9.407617923E0
1.546632300E-1,-2.714956284E0,4.060320854E0,7.955537319E0,9.335296840E0
1.571871890E-1,-2.731706142E0,3.806681633E0,7.886145115E0,9.173021764E0
1.597111470E-1,-2.686242580E0,3.430709362E0,7.843074322E0,8.972150285E0
1.622351050E-1,-2.614457846E0,2.973381281E0,7.845467091E0,8.787931494E0
1.647590640E-1,-2.528316259E0,2.609672308E0,7.867002487E0,8.665592928E0
1.672830220E-1,-2.475374937E0,2.219342947E0,7.838288784E0,8.514207847E0
1.698069800E-1,-2.451446772E0,1.778764486E0,7.685148239E0,8.260453851E0
1.723309390E-1,-2.477767944E0,1.405484200E0,7.574779034E0,8.092712600E0
1.748548970E-1,-2.566601276E0,1.098903775E0,7.524529934E0,8.025807271E0
1.773788550E-1,-2.729313374E0,8.377870321E-1,7.603792191E0,8.122111442E0
1.799028140E-1,-2.939881802E0,6.272186637E-1,7.716254711E0,8.281116774E0
1.824267720E-1,-3.224926710E0,4.477569461E-1,7.816753387E0,8.467719415E0
1.849507300E-1,-3.540779352E0,3.017947674E-1,7.907680511E0,8.669464203E0
1.874746890E-1,-3.854538202E0,1.722832322E-1,8.020143509E0,8.899991470E0
1.899986470E-1,-4.211368084E0,9.332008660E-2,8.125427246E0,9.152425783E0
1.925226050E-1,-4.546362877E0,4.546362907E-2,8.219046593E0,9.392774310E0
1.950465640E-1,-4.857728958E0,-4.785645287E-3,8.278866768E0,9.598811827E0
1.975705220E-1,-5.101797104E0,-3.349951655E-2,8.333902359E0,9.771559980E0
2.000944800E-1,-5.321936607E0,-5.503492057E-2,8.434400558E0,9.973221690E0
2.026184390E-1,-5.501697540E0,-5.742774159E-2,8.577970505E0,1.019085628E1
2.051423970E-1,-5.554339409E0,-2.153540403E-2,8.690432549E0,1.031381442E1
2.076663550E-1,-5.520840168E0,4.785645381E-2,8.786444664E0,1.037706973E1
2.101903140E-1,-5.511268616E0,1.842473447E-1,8.886942863E0,1.045876581E1
2.127142720E-1,-5.408377171E0,3.185445070E-1,9.008976936E0,1.051254868E1
2.152382300E-1,-5.257330418E0,4.668995142E-1,9.097511292E0,1.051771030E1
2.177621890E-1,-4.951049328E0,5.243272781E-1,9.023334503E0,1.030574471E1
2.202861470E-1,-3.873680830E0,-1.196411327E-1,7.388139248E0,8.342920275E0
2.228101050E-1,-3.485744476E0,-4.785645287E-3,6.892525673E0,7.723816907E0
2.253340640E-1,-3.658326626E0,4.118646085E-1,7.622934818E0,8.465348274E0
2.278580220E-1,-4.086641788E0,8.907282352E-1,9.001798630E0,9.926047374E0
2.303819800E-1,-4.532006264E0,1.297508121E0,1.052692413E1,1.153424206E1
2.329059390E-1,-4.620540619E0,1.568196177E0,1.133360481E1,1.233933681E1
2.354298970E-1,-4.211368084E0,1.807478428E0,1.146042442E1,1.234276822E1
2.379538550E-1,-3.485744476E0,2.027917147E0,1.125703430E1,1.195757851E1
2.404778140E-1,-2.786741018E0,2.133201361E0,1.105603695E1,1.159967355E1
2.430017720E-1,-2.252842426E0,2.070987940E0,1.096271706E1,1.138180369E1
2.455257300E-1,-1.884048700E0,1.872084618E0,1.103210926E1,1.134732458E1
2.480496890E-1,-1.637588024E0,1.568196177E0,1.119960594E1,1.142681526E1
2.505736470E-1,-1.517946839E0,1.249651670E0,1.137906837E1,1.154768327E1
2.530976050E-1,-1.443769336E0,9.625129104E-1,1.146999550E1,1.160050420E1
2.556215640E-1,-1.402792215E0,7.325028181E-1,1.147478104E1,1.158339269E1
2.581455220E-1,-1.362114310E0,5.291129351E-1,1.142931747E1,1.152235279E1
2.606694800E-1,-1.359721422E0,3.640081584E-1,1.140299606E1,1.148954584E1
2.631934390E-1,-1.424626827E0,2.153540403E-1,1.144128132E1,1.153164590E1
2.657173970E-1,-1.616052628E0,9.092725813E-2,1.148435211E1,1.159785486E1
2.682413550E-1,-1.963011861E0,-2.871387079E-2,1.156361485E1,1.172908472E1
2.707653140E-1,-2.233700037E0,-1.028913707E-1,1.146281719E1,1.167887753E1
2.732892720E-1,-2.446661234E0,-1.459621787E-1,1.122114182E1,1.148570763E1
2.758132300E-1,-2.600100994E0,-1.986042857E-1,1.092413235E1,1.123105678E1
2.783371890E-1,-2.765205622E0,-2.440679073E-1,1.063460159E1,1.099093637E1
2.808611470E-1,-2.968595505E0,-3.209373355E-1,1.036151981E1,1.078316525E1
2.833851050E-1,-3.157927752E0,-3.927220106E-1,1.007677460E1,1.056731397E1
2.859090640E-1,-3.311068296E0,-5.075774789E-1,9.782157898E0,1.033979793E1
2.884330220E-1,-3.684647799E0,-6.487540603E-1,9.736694336E0,1.043075874E1
2.909569800E-1,-4.158426762E0,-8.210372925E-1,9.885348320E0,1.075577644E1
2.934809390E-1,-4.599005222E0,-1.005583763E0,1.002652550E1,1.107669902E1
2.960048970E-1,-4.948656559E0,-1.232901812E0,1.007916737E1,1.129596669E1
2.985288550E-1,-5.281258583E0,-1.443769336E0,1.004806042E1,1.144288776E1
3.010528140E-1,-5.528018475E0,-1.659123421E0,9.985847473E0,1.153381240E1
3.035767720E-1,-5.695516109E0,-1.860120535E0,9.904491425E0,1.157574631E1
3.061007300E-1,-5.762515068E0,-2.023131609E0,9.813264847E0,1.155853833E1
3.086246890E-1,-5.752943993E0,-2.073380709E0,9.717552185E0,1.148155445E1
3.111486470E-1,-5.633302689E0,-2.073380709E0,9.621838570E0,1.134075766E1
3.136726050E-1,-5.513661385E0,-2.030309916E0,9.597910881E0,1.125355559E1
3.161965640E-1,-5.321936607E0,-1.958226204E0,9.605089188E0,1.115416503E1
3.187205220E-1,-5.058726311E0,-1.862513304E0,9.600303650E0,1.101024513E1
3.212444800E-1,-4.812265396E0,-1.762014747E0,9.578767776E0,1.086348868E1
3.237684390E-1,-4.596612453E0,-1.692622900E0,9.550054550E0,1.073300332E1
3.262923970E-1,-4.386044025E0,-1.659123421E0,9.487840652E0,1.058343956E1
3.288163550E-1,-4.228117466E0,-1.649552107E0,9.425627708E0,1.046137931E1
3.313403140E-1,-4.148855209E0,-1.656730533E0,9.320343018E0,1.033569299E1
3.338642720E-1,-4.127319813E0,-1.687837243E0,9.154939651E0,1.018314703E1
3.363882300E-1,-4.089034557E0,-1.723729610E0,8.980263710E0,1.001681505E1
3.389121890E-1,-4.036392689E0,-1.718943954E0,8.784051895E0,9.818696550E0
3.414361470E-1,-4.043570995E0,-1.716551185E0,8.633005142E0,9.686371465E0
3.439601050E-1,-4.067499161E0,-1.697408557E0,8.520542145E0,9.592986171E0
3.464840640E-1,-4.141676903E0,-1.663909078E0,8.470293045E0,9.574337849E0
3.490080220E-1,-4.206283092E0,-1.599302888E0,8.432007790E0,9.557684999E0
3.515319800E-1,-4.242474556E0,-1.563410521E0,8.393722534E0,9.534013887E0
3.540559390E-1,-4.254438877E0,-1.498804331E0,8.307580948E0,9.453177550E0
3.565798970E-1,-4.261617184E0,-1.424626827E0,8.183154106E0,9.335681750E0
3.591038550E-1,-4.247260094E0,-1.393221021E0,7.986643791E0,9.152418378E0
3.616278140E-1,-4.213760853E0,-1.383649707E0,7.783253670E0,8.958197627E0
3.641517720E-1,-4.160819530E0,-1.369292736E0,7.594220638E0,8.766958929E0
3.666757300E-1,-4.045963764E0,-1.393221021E0,7.447959423E0,8.589702391E0
3.691996890E-1,-3.849752426E0,-1.446162224E0,7.395317554E0,8.461837900E0
3.717236470E-1,-3.586242914E0,-1.498804331E0,7.443173885E0,8.396927423E0
3.742476050E-1,-3.330210924E0,-1.553839207E0,7.606184959E0,8.447412072E0
3.767715640E-1,-3.334996462E0,-1.697408557E0,7.929215908E0,8.767888122E0
3.792955220E-1,-3.614956856E0,-1.946262121E0,8.630612373E0,9.557369892E0
3.818194800E-1,-3.279961586E0,-1.987239242E0,8.915657043E0,9.705473112E0
3.843434390E-1,-2.994916677E0,-1.982453585E0,8.870193481E0,9.569742970E0
3.868673970E-1,-2.736491680E0,-1.917548299E0,8.731410027E0,9.348951773E0
3.893913550E-1,-2.506481647E0,-1.788335800E0,8.537292480E0,9.075569298E0
3.919153140E-1,-2.355733871E0,-1.671087503E0,8.372187614E0,8.856384193E0
3.944392720E-1,-2.260020971E0,-1.553839207E0,8.262117386E0,8.705440527E0
3.969632300E-1,-2.243271112E0,-1.436590910E0,8.120641708E0,8.546395760E0
3.994871890E-1,-2.281556368E0,-1.347757339E0,7.974679470E0,8.403419658E0
4.020111470E-1,-2.520838737E0,-1.268794179E0,7.857431412E0,8.348873876E0
4.045351050E-1,-3.251247883E0,-1.113260746E0,8.029714584E0,8.734201657E0
4.070590640E-1,-3.531208038E0,-1.022333503E0,7.926823139E0,8.737798412E0
4.095830220E-1,-3.416352510E0,-9.266205430E-1,7.687541008E0,8.463354941E0
4.121069800E-1,-3.258426189E0,-8.476574421E-1,7.440781116E0,8.167073405E0
4.146309390E-1,-3.200998545E0,-8.931210637E-1,7.270890713E0,7.994367309E0
4.171548970E-1,-3.279961586E0,-1.007976532E0,7.189534664E0,7.966402788E0
4.196788550E-1,-3.485744476E0,-1.158724308E0,7.122535706E0,8.013961034E0
4.222028140E-1,-3.749253988E0,-1.302293777E0,7.077072144E0,8.114051064E0
4.247267720E-1,-4.122534275E0,-1.381256819E0,7.117750168E0,8.340595105E0
4.272507300E-1,-4.613361835E0,-1.326221943E0,7.670791149E0,9.048923081E0
4.297746890E-1,-4.577469826E0,-1.285543919E0,7.773682594E0,9.112408806E0
4.322986470E-1,-4.386044025E0,-1.230509043E0,7.620542049E0,8.878299152E0
4.348226050E-1,-4.084249020E0,-1.170688510E0,7.493422985E0,8.614115722E0
4.373465640E-1,-3.763610840E0,-1.153938770E0,7.321139812E0,8.312366053E0
4.398705220E-1,-3.440280676E0,-1.156331539E0,7.139285564E0,8.008872088E0
4.423944800E-1,-3.126821041E0,-1.180259824E0,6.957131863E0,7.718270974E0
4.449184390E-1,-2.935096025E0,-1.199402332E0,6.844669342E0,7.543397977E0
4.474423970E-1,-2.779562712E0,-1.185045362E0,6.772884369E0,7.416351128E0
4.499663550E-1,-2.650350094E0,-1.151545882E0,6.732206345E0,7.326186990E0
4.524903140E-1,-2.533101797E0,-1.101296663E0,6.734599113E0,7.279030449E0
4.550142720E-1,-2.427518606E0,-1.022333503E0,6.751348972E0,7.246980428E0
4.575382300E-1,-2.315055847E0,-8.883354068E-1,6.806384087E0,7.243996667E0
4.600621890E-1,-2.154736757E0,-7.229315639E-1,6.887740135E0,7.253032794E0
4.625861470E-1,-1.992024899E0,-6.463612318E-1,7.043572426E0,7.348323520E0
4.651101050E-1,-1.785943031E0,-5.458626747E-1,7.316354275E0,7.550933614E0
4.676340640E-1,-1.561017632E0,-4.214358926E-1,7.536494255E0,7.707991302E0
4.701580220E-1,-1.347757339E0,-3.185445070E-1,7.742575645E0,7.865455999E0
4.726819800E-1,-1.156331539E0,-2.321037948E-1,7.957930088E0,8.044850905E0
4.752059390E-1,-9.840483069E-1,-1.292124242E-1,8.161619186E0,8.221744016E0
4.777298970E-1,-8.066803217E-1,-5.264209956E-2,8.372187614E0,8.411125358E0
4.802538550E-1,-6.655037999E-1,-4.785645287E-3,8.589934349E0,8.615677009E0
4.827778140E-1,-6.056832075E-1,4.785645287E-3,8.863015175E0,8.883688031E0
4.853017720E-1,-6.128616929E-1,-1.435693540E-2,9.152546883E0,9.173054018E0
4.878257300E-1,-6.224330068E-1,2.871387079E-2,9.451948166E0,9.472463854E0
4.903496890E-1,-6.774678826E-1,4.307080805E-2,9.686445236E0,9.710202837E0
4.928736470E-1,-7.612167001E-1,1.124626622E-1,9.916455269E0,9.946264817E0
4.953976050E-1,-8.377870321E-1,1.890329868E-1,1.012941647E1,1.016576109E1
4.979215640E-1,-9.314061999E-1,2.679961324E-1,1.028734303E1,1.033289727E1
5.004455220E-1,-9.816554785E-1,3.879363835E-1,1.039771175E1,1.045115074E1
5.029694800E-1,-1.007976532E0,4.956133962E-1,1.044556808E1,1.050578612E1
5.054934390E-1,-9.984052777E-1,5.985047817E-1,1.042403316E1,1.048882684E1
5.080173970E-1,-9.529415965E-1,7.229315639E-1,1.032323551E1,1.039230096E1
5.105413550E-1,-8.931210637E-1,8.090731502E-1,1.020120144E1,1.027213587E1
5.130653140E-1,-8.018946648E-1,8.907282352E-1,1.006480980E1,1.013591773E1
5.155892720E-1,-6.678966284E-1,9.625129104E-1,9.890133858E0,9.959280332E0
5.181132300E-1,-5.219344497E-1,1.046261668E0,9.688838005E0,9.759132182E0
5.206371890E-1,-3.831507266E-1,1.156331539E0,9.466305733E0,9.544362280E0
5.231611470E-1,-6.750751138E-1,1.039083242E0,9.593125343E0,9.672821421E0
5.256851050E-1,-8.306085467E-1,9.361918569E-1,9.779765129E0,9.859521881E0
5.282090640E-1,-7.779664397E-1,8.668000102E-1,9.712766647E0,9.782351966E0
5.307330220E-1,-5.602195859E-1,8.787640929E-1,9.506983757E0,9.563932898E0
5.332569800E-1,-2.946162820E-1,9.026923180E-1,9.231510162E0,9.280217242E0
5.357809390E-1,-4.307080805E-2,8.739784956E-1,9.059226990E0,9.101389298E0
5.383048970E-1,2.560320199E-1,8.572286963E-1,9.001798630E0,9.046146804E0
5.408288550E-1,9.290133715E-1,1.086939692E0,9.363413811E0,9.471959772E0
5.433528140E-1,3.492922783E0,2.015953064E0,1.327059460E1,1.386986868E1
5.458767720E-1,8.623434067E0,3.586242914E0,2.370868492E1,2.548188561E1
5.484007300E-1,1.695733643E1,5.197509766E0,3.210240936E1,3.667601469E1
5.509246890E-1,1.625354767E1,5.729015827E0,3.063500977E1,3.514972628E1
5.534486470E-1,1.338066387E1,6.294020653E0,2.379961205E1,2.801925044E1
5.559726050E-1,9.964311600E0,6.444768906E0,1.655025673E1,2.036500797E1
5.584965640E-1,6.313163280E0,6.179165363E0,1.103450203E1,1.413500443E1
5.610205220E-1,2.973381281E0,5.762515068E0,7.368996620E0,9.815787658E0
5.635444800E-1,6.822535396E-1,5.561518192E0,4.874478817E0,7.426742101E0
5.660684390E-1,-7.396813035E-1,5.183153152E0,3.270390272E0,6.173140009E0
5.685923970E-1,-1.352542996E0,4.699503899E0,2.224128723E0,5.372286108E0
5.711163550E-1,-1.431805253E0,3.998107433E0,1.618445396E0,4.544699642E0
5.736403140E-1,-1.266401410E0,3.169891834E0,1.496411443E0,3.727094576E0
5.761642720E-1,-1.036690354E0,2.255235434E0,1.687837243E0,3.001600958E0
5.786882300E-1,-7.420741320E-1,1.364507079E0,2.111665964E0,2.621390229E0
5.812121890E-1,-4.022932947E-1,5.410770178E-1,2.822633505E0,2.902044820E0
5.837361470E-1,-7.657032460E-2,-2.297109663E-1,3.787539244E0,3.795271224E0
5.862601050E-1,1.842473447E-1,-9.194421172E-1,4.857728958E0,4.947408566E0
5.887840640E-1,3.305086195E-1,-1.508375525E0,5.920740604E0,6.118790892E0
5.913080220E-1,2.321037948E-1,-2.114058733E0,6.811169624E0,7.135485138E0
5.938319800E-1,2.632104978E-2,-2.564208508E0,7.550850868E0,7.974409502E0
5.963559390E-1,-1.722832322E-1,-2.722134829E0,8.250153542E0,8.689345948E0
5.988798970E-1,-3.592225015E-1,-2.712563515E0,8.863015175E0,9.275779192E0
6.014038550E-1,-5.123631358E-1,-2.535494804E0,9.413662910E0,9.762596954E0
6.039278140E-1,-6.750751138E-1,-2.288734913E0,9.813264847E0,1.009921783E1
6.064517720E-1,-8.668000102E-1,-2.049452543E0,9.926026344E0,1.017239387E1
6.089757300E-1,-1.098903775E0,-1.826620936E0,9.873384476E0,1.010088385E1
6.114996890E-1,-1.376471281E0,-1.599302888E0,9.765408516E0,9.990778068E0
6.140236470E-1,-1.599302888E0,-1.393221021E0,9.739087105E0,9.967379404E0
6.165476050E-1,-1.788335800E0,-1.256830096E0,9.803693771E0,1.004441031E1
6.190715640E-1,-2.003988981E0,-1.242473125E0,9.842277527E0,1.012077755E1
6.215955220E-1,-2.228914261E0,-1.328614831E0,9.911669731E0,1.024570510E1
6.241194800E-1,-2.382055044E0,-1.362114310E0,9.952347755E0,1.032369931E1
6.266434390E-1,-2.465803623E0,-1.395613790E0,1.002891827E1,1.042147432E1
6.291673970E-1,-2.600100994E0,-1.415055513E0,1.006959629E1,1.049569801E1
6.316913550E-1,-2.722134829E0,-1.453340650E0,1.007438183E1,1.053638393E1
6.342153140E-1,-2.896811008E0,-1.484447360E0,1.006720352E1,1.058034426E1
6.367392720E-1,-3.085843801E0,-1.515554070E0,1.008156013E1,1.065162855E1
6.392632300E-1,-3.445066452E0,-1.575374603E0,1.035673428E1,1.102779365E1
6.417871890E-1,-4.041178226E0,-1.690230131E0,1.119960594E1,1.202577119E1
6.443111470E-1,-4.515256405E0,-1.852941990E0,1.264098263E1,1.355047513E1
6.468351050E-1,-4.462614059E0,-1.980060697E0,1.454178143E1,1.533945800E1
6.493590640E-1,-4.026821613E0,-1.992024899E0,1.659601974E1,1.719335124E1
6.518830220E-1,-3.327818155E0,-1.864906192E0,1.850878143E1,1.889781043E1
6.544069800E-1,-2.829811811E0,-1.790728688E0,2.056541252E1,2.083628413E1
6.569309390E-1,-2.688635349E0,-1.781157374E0,2.169063759E1,2.192909119E1
6.594548970E-1,-2.484946251E0,-1.817049742E0,2.135773659E1,2.157845082E1
6.619788550E-1,-2.322234392E0,-1.903191328E0,2.000040817E1,2.022452068E1
6.645028140E-1,-2.123630047E0,-1.919941068E0,1.849203300E1,1.871232917E1
6.670267720E-1,-1.989632010E0,-1.929512382E0,1.705065536E1,1.727444650E1
6.695507300E-1,-1.783550143E0,-1.881655931E0,1.578904057E1,1.600048381E1
6.720746890E-1,-1.395613790E0,-1.802692771E0,1.392413425E1,1.410953415E1
6.745986470E-1,8.374879509E-2,-1.489233017E0,4.893621445E0,5.115892853E0
6.771226050E-1,2.321037948E-1,-1.098903775E0,4.831408024E0,4.960238419E0
6.796465640E-1,-2.392822653E-1,-8.377870321E-1,7.596613884E0,7.646416521E0
6.821705220E-1,-6.966105103E-1,-1.137188911E0,8.398508072E0,8.503728750E0
6.846944800E-1,-8.018946648E-1,-1.271187067E0,8.209475517E0,8.345923549E0
6.872184390E-1,-4.549354017E-1,-1.522732496E0,7.364210606E0,7.533742650E0
6.897423970E-1,1.890329868E-1,-1.486840129E0,6.049952984E0,6.232845108E0
6.922663550E-1,7.085745931E-1,-7.396813035E-1,5.037190914E0,5.140281966E0
6.947903140E-1,3.759722710E-1,-1.651047617E-1,4.527220249E0,4.545804430E0
6.973142720E-1,-9.092725813E-2,-2.632104978E-2,3.947858334E0,3.948993034E0
6.998382300E-1,-3.735794425E-1,2.560320199E-1,3.497708559E0,3.526907875E0
7.023621890E-1,-5.362913609E-1,6.248258352E-1,3.464209080E0,3.560724687E0
7.048861470E-1,-8.330013752E-1,8.377870321E-1,3.919144392E0,4.093344741E0
7.074101050E-1,-1.170688510E0,9.002995491E-1,4.402793884E0,4.643882519E0
7.099340640E-1,-1.613659739E0,8.715856671E-1,4.555934429E0,4.911221625E0
7.124580220E-1,-2.255235434E0,9.314061999E-1,3.792324781E0,4.509471324E0
7.149819800E-1,-2.901596546E0,8.763712645E-1,3.423531055E0,4.572510689E0
7.175059390E-1,-3.466601849E0,7.013961077E-1,4.584648132E0,5.790361247E0
7.200298970E-1,-3.897608995E0,4.980062246E-1,6.203093529E0,7.342869698E0
7.225538550E-1,-4.283152580E0,3.448655605E-1,7.922037601E0,9.012380820E0
7.250778140E-1,-4.591826439E0,2.826521695E-1,9.327521324E0,1.040035655E1
7.276017720E-1,-4.764110088E0,2.129612118E-1,1.015334511E1,1.121750927E1
7.301257300E-1,-4.860121727E0,1.579262912E-1,1.041924667E1,1.149810529E1
7.326496890E-1,-4.972584724E0,1.627119333E-1,1.035434151E1,1.148762212E1
7.351736470E-1,-5.118546963E0,2.177468538E-1,1.004806042E1,1.127876123E1
7.376976050E-1,-5.367699623E0,3.664009571E-1,9.729516029E0,1.111800032E1
7.402215640E-1,-5.650052547E0,4.740779996E-1,9.573982239E0,1.112694835E1
7.427455220E-1,-5.846263885E0,5.482555032E-1,9.710372925E0,1.134771906E1
7.452694800E-1,-6.021239281E0,5.745765567E-1,1.007677460E1,1.175273785E1
7.477934390E-1,-6.183950901E0,5.673980713E-1,1.047906780E1,1.218088877E1
7.503173970E-1,-6.291627884E0,5.362913609E-1,1.079013443E1,1.250196748E1
7.528413550E-1,-6.291627884E0,5.482555032E-1,1.102493000E1,1.270567775E1
7.553653140E-1,-5.874977589E0,2.946162820E-1,1.105603695E1,1.252350244E1
7.578892720E-1,-5.238187790E0,-3.161516786E-1,1.156840038E1,1.270300951E1
7.604132300E-1,-5.571089268E0,-5.027918816E-1,1.313629723E1,1.427767979E1
7.629371890E-1,-5.108975410E0,-5.578267574E-1,1.448196125E1,1.536684750E1
7.654611470E-1,-4.948656559E0,-7.229315639E-1,1.541785336E1,1.620870241E1
7.679851050E-1,-5.022833824E0,-7.660023570E-1,1.525992775E1,1.608356348E1
7.705090640E-1,-4.512863636E0,-9.290133715E-1,1.408684635E1,1.482120927E1
7.730330220E-1,-3.859323740E0,-1.185045362E0,1.255693531E1,1.318997106E1
7.755569800E-1,-3.217748165E0,-1.338186026E0,1.123549843E1,1.176354836E1
7.780809390E-1,-2.528316259E0,-1.302293777E0,1.030409241E1,1.068937194E1
7.806048970E-1,-1.809871197E0,-1.127617717E0,9.703194618E0,9.934744147E0
7.831288550E-1,-1.086939692E0,-1.012762189E0,9.313164711E0,9.430915230E0
7.856528140E-1,-4.716851711E-1,-1.034297585E0,9.178867340E0,9.248992596E0
7.881767720E-1,2.970091105E-1,-1.168295622E0,9.605089188E0,9.680437354E0
7.907007300E-1,7.803592682E-1,-1.393221021E0,9.562018394E0,9.694442799E0
7.932246890E-1,1.027119160E0,-1.673480392E0,9.145368576E0,9.353784089E0
7.957486470E-1,1.043868899E0,-1.931905150E0,8.774480820E0,9.045077857E0
7.982726050E-1,9.553344250E-1,-2.152343988E0,8.458329201E0,8.780010329E0
8.007965640E-1,8.162516356E-1,-2.303091764E0,8.199904442E0,8.556221787E0
8.033205220E-1,6.391827464E-1,-2.372483730E0,7.969893932E0,8.340050535E0
8.058444800E-1,3.831507266E-1,-2.382055044E0,7.802396297E0,8.166907536E0
8.083684390E-1,1.004985496E-1,-2.374876499E0,7.742575645E0,8.099235518E0
8.108923970E-1,-1.507478207E-1,-2.396411896E0,7.725826263E0,8.090358851E0
8.134163550E-1,-3.616153300E-1,-2.386840582E0,7.771289825E0,8.137611392E0
8.159403140E-1,-5.243272781E-1,-2.405983210E0,7.845467091E0,8.222835774E0
8.184642720E-1,-6.008976102E-1,-2.401197433E0,7.962715626E0,8.338565056E0
8.209882300E-1,-6.607181430E-1,-2.379662037E0,8.137690544E0,8.504195862E0
8.235121890E-1,-6.678966284E-1,-2.350948334E0,8.290831566E0,8.643548578E0
8.260361470E-1,-6.391827464E-1,-2.305484533E0,8.369794846E0,8.705014605E0
8.285601050E-1,-5.650052428E-1,-2.283949137E0,8.379365921E0,8.703414722E0
8.310840640E-1,-5.315057039E-1,-2.250449657E0,8.365009308E0,8.678732782E0
8.336080220E-1,-5.745765567E-1,-2.216950178E0,8.381758690E0,8.689009440E0
8.361319800E-1,-7.277171612E-1,-2.173879385E0,8.472685814E0,8.777341781E0
8.386559390E-1,-1.029511929E0,-2.111665964E0,8.635397911E0,8.949252764E0
8.411798970E-1,-1.415055513E0,-2.035095692E0,8.827122688E0,9.168538135E0
8.437038550E-1,-1.852941990E0,-1.886441588E0,8.992227554E0,9.372951097E0
8.462278140E-1,-2.327019930E0,-1.747657895E0,9.087940216E0,9.542535682E0
8.487517720E-1,-2.820240498E0,-1.668694735E0,9.030512810E0,9.606688305E0
8.512757300E-1,-3.308675528E0,-1.580160260E0,8.985049248E0,9.704398497E0
8.537996890E-1,-3.777967930E0,-1.546660781E0,8.872586250E0,9.766677430E0
8.563236470E-1,-4.165605068E0,-1.486840129E0,8.767302513E0,9.819804097E0
8.588476050E-1,-4.500899315E0,-1.441376567E0,8.623434067E0,9.833579010E0
8.613715640E-1,-4.733003139E0,-1.415055513E0,8.463114738E0,9.799388343E0
8.638955220E-1,-4.848157883E0,-1.374078393E0,8.235795975E0,9.655105469E0
8.664194800E-1,-4.874478817E0,-1.321436286E0,7.986643791E0,9.449508804E0
8.689434390E-1,-4.900799751E0,-1.271187067E0,7.744968891E0,9.253015610E0
8.714673970E-1,-4.910371304E0,-1.230509043E0,7.584649563E0,9.118816142E0
8.739913550E-1,-4.924727917E0,-1.187438250E0,7.534101009E0,9.078856353E0
8.765153140E-1,-4.929513931E0,-1.132403374E0,7.519744396E0,9.062505216E0
8.790392720E-1,-4.991727352E0,-1.065404296E0,7.505387306E0,9.076522841E0
8.815632300E-1,-5.046761990E0,-9.720842242E-1,7.469494820E0,9.066868653E0
8.840871890E-1,-5.154438972E0,-8.715856671E-1,7.388139248E0,9.050552704E0
8.866111470E-1,-5.271687508E0,-7.636095285E-1,7.246962547E0,8.994012167E0
8.891351050E-1,-5.417948723E0,-6.439684033E-1,7.000202656E0,8.875342297E0
8.916590640E-1,-5.621338367E0,-5.123631358E-1,6.698707104E0,8.759830928E0
8.941830220E-1,-5.911169052E0,-3.927220106E-1,6.382555485E0,8.708223967E0
8.967069800E-1,-6.262914181E0,-2.584248483E-1,6.085845470E0,8.736612188E0
8.992309390E-1,-6.593422890E0,-1.914258152E-1,5.743372440E0,8.746210393E0
9.017548970E-1,-6.784848690E0,-1.459621787E-1,4.905585289E0,8.373783119E0
9.042788550E-1,-6.827919483E0,-6.460621208E-2,3.102892876E0,7.500173507E0
9.068028140E-1,-6.847062111E0,-7.657032460E-2,1.946262121E0,7.118711879E0
9.093267720E-1,-6.985845566E0,-1.292124242E-1,2.255235434E0,7.341990260E0
9.118507300E-1,-7.175177574E0,-1.794617027E-1,3.026023388E0,7.789235987E0
9.143746890E-1,-7.452745438E0,-1.842473447E-1,3.626920938E0,8.290471466E0
9.168986470E-1,-7.747361660E0,-2.033899277E-1,3.952643871E0,8.699791591E0
9.194226050E-1,-7.953144073E0,-2.656033039E-1,4.065106392E0,8.935778407E0
9.219465640E-1,-8.113463402E0,-3.927220106E-1,4.177569389E0,9.134254483E0
9.244705220E-1,-8.202297211E0,-5.410770178E-1,4.402793884E0,9.324968518E0
9.269944800E-1,-8.274081230E0,-6.631109715E-1,4.807479858E0,9.592288515E0
9.295184390E-1,-8.391329765E0,-7.803592682E-1,5.331807137E0,9.972539454E0
9.320423970E-1,-8.621041298E0,-8.066803217E-1,5.992525101E0,1.053012076E1
9.345663550E-1,-8.958727837E0,-7.588238716E-1,6.684350014E0,1.120335455E1
9.370903140E-1,-9.377771378E0,-5.721837282E-1,7.330711365E0,1.191676631E1
9.396142720E-1,-9.789336205E0,-2.922234535E-1,7.785646915E0,1.251130672E1
9.421382300E-1,-1.020837975E1,-2.871387079E-2,8.046463966E0,1.299836235E1
9.446621890E-1,-1.061785126E1,2.177468538E-1,8.079963684E0,1.334436181E1
9.471861470E-1,-1.101296616E1,4.262215197E-1,7.960322857E0,1.359536054E1
9.497101050E-1,-1.130010509E1,5.721837282E-1,7.835896015E0,1.376303149E1
9.522340640E-1,-1.147956657E1,7.037889361E-1,7.749754429E0,1.386847004E1
9.547580220E-1,-1.157557869E1,8.018946648E-1,7.706683636E0,1.392946624E1
9.572819800E-1,-1.163779163E1,8.787640929E-1,7.689933777E0,1.397660552E1
9.598059390E-1,-1.169282722E1,9.098708034E-1,7.692326546E0,1.402576062E1
9.623298970E-1,-1.174307632E1,9.170492887E-1,7.699504852E0,1.407207149E1
9.648538550E-1,-1.174546909E1,9.696913958E-1,7.711469173E0,1.408414365E1
9.673778140E-1,-1.165693474E1,1.005583763E0,7.735397339E0,1.402610773E1
9.699017720E-1,-1.146520996E1,1.060618639E0,7.771289825E0,1.389132452E1
9.724257300E-1,-1.123310566E1,1.113260746E0,7.819146156E0,1.373175367E1
9.749496890E-1,-1.096750259E1,1.151545882E0,7.902894974E0,1.356716330E1
9.774736470E-1,-1.070399284E1,1.165902853E0,7.981858253E0,1.340316580E1
9.799976050E-1,-1.040728283E1,1.163509965E0,7.996214867E0,1.317591528E1
9.825215640E-1,-1.006959629E1,1.156331539E0,7.979465485E0,1.289983494E1
9.850455220E-1,-9.736694336E0,1.165902853E0,7.912466049E0,1.260038353E1
9.875694800E-1,-9.437591553E0,1.134796143E0,7.838288784E0,1.232049787E1
9.900934390E-1,-9.157332420E0,1.096511006E0,7.807182312E0,1.208350815E1
9.926173970E-1,-8.920442581E0,1.058225870E0,7.823931694E0,1.191251632E1
9.951413550E-1,-8.707481384E0,1.010369420E0,7.881359577E0,1.178799844E1
9.976653140E-1,-8.525327682E0,9.553344250E-1,7.931608677E0,1.168350513E1
1.000189272E0,-8.369794846E0,8.883354068E-1,8.053643227E0,1.164919631E1
1.002713230E0,-8.245368004E0,8.306085467E-1,8.197511673E0,1.165655188E1
1.005237189E0,-8.147261620E0,7.540382147E-1,8.388936996E0,1.171839193E1
1.007761147E0,-8.089534760E0,6.942176819E-1,8.635397911E0,1.185295777E1
1.010285105E0,-8.099106789E0,6.511468887E-1,8.958727837E0,1.209455776E1
1.012809064E0,-8.130212784E0,6.104688644E-1,9.368199348E0,1.241918641E1
1.015333022E0,-8.166404724E0,5.817549825E-1,9.842277527E0,1.280230573E1
1.017856980E0,-8.283653259E0,5.817549825E-1,1.034477043E1,1.326542971E1
1.020380939E0,-8.460721970E0,5.793621540E-1,1.081884861E1,1.374652545E1
1.022904897E0,-8.685647011E0,5.937191248E-1,1.125942707E1,1.423262676E1
1.025428855E0,-8.953942299E0,6.200401783E-1,1.164736366E1,1.470437393E1
1.027952814E0,-9.186046600E0,6.750751138E-1,1.192971611E1,1.507173862E1
1.030476772E0,-9.349057198E0,7.636095285E-1,1.206879902E1,1.528541395E1
1.033000730E0,-9.497411728E0,8.258228898E-1,1.206879902E1,1.537981543E1
1.035524689E0,-9.607481956E0,8.644071817E-1,1.193689442E1,1.534732412E1
1.038048647E0,-9.612267494E0,9.290133715E-1,1.171436214E1,1.518173352E1
1.040572605E0,-9.554840088E0,9.744769931E-1,1.141735363E1,1.491980357E1
1.043096564E0,-9.485447884E0,9.840483069E-1,1.104885864E1,1.459518242E1
1.045620522E0,-9.435198784E0,9.314061999E-1,1.067049313E1,1.427409952E1
1.048144480E0,-9.578767776E0,8.668000102E-1,1.034237766E1,1.412334628E1
1.050668439E0,-9.710372925E0,7.971090674E-1,9.995418549E0,1.395833504E1
1.053192397E0,-9.818050385E0,7.660023570E-1,9.662516594E0,1.379656116E1
1.055716355E0,-9.842277527E0,8.018946648E-1,9.337093353E0,1.359024556E1
1.058240314E0,-9.763015747E0,8.066803217E-1,9.056833267E0,1.334141816E1
1.060764272E0,-9.636196136E0,7.995018363E-1,8.817551613E0,1.308604966E1
1.063288230E0,-9.466305733E0,7.923234105E-1,8.628219604E0,1.283296124E1
1.065812189E0,-9.270093918E0,7.372884750E-1,8.501399994E0,1.259968402E1
1.068336147E0,-9.087940216E0,6.463612318E-1,8.367402077E0,1.237020039E1
1.070860105E0,-8.925228119E0,5.458626747E-1,8.269295692E0,1.217944639E1
1.073384064E0,-8.767302513E0,4.477569461E-1,8.171190262E0,1.199309926E1
1.075908022E0,-8.623434067E0,3.568296731E-1,8.099106789E0,1.183581317E1
1.078431980E0,-8.393722534E0,1.842473447E-1,8.108677864E0,1.167215412E1
1.080955939E0,-8.309973717E0,7.657032460E-2,8.154440880E0,1.164287045E1
1.083479897E0,-8.508578300E0,6.699903309E-2,8.130212784E0,1.176863431E1
1.086003855E0,-8.877371788E0,1.124626622E-1,8.231010437E0,1.210660607E1
1.088527814E0,-9.356235504E0,2.368894368E-1,8.369794846E0,1.255582435E1
1.091051772E0,-9.830313683E0,4.334000051E-1,8.477471352E0,1.298808774E1
1.093575730E0,-1.029212856E1,6.990033388E-1,8.448758125E0,1.333409277E1
1.096099689E0,-1.069202900E1,1.019940615E0,8.242975235E0,1.353906953E1
1.098623595E0,-1.103450203E1,1.316650629E0,7.859824181E0,1.361141580E1
1.101147501E0,-1.124028397E1,1.563410521E0,7.325925827E0,1.350768023E1
1.103671407E0,-1.131685448E1,1.781157374E0,6.756134510E0,1.329996505E1
1.106195262E0,-1.126899815E1,1.953440547E0,6.188736439E0,1.300410350E1
1.108719116E0,-1.107278633E1,2.068595171E0,5.697908878E0,1.262346421E1
1.111242970E0,-1.082841969E1,2.121237278E0,5.331807137E0,1.225489648E1
1.113766824E0,-1.061306572E1,2.157129526E0,5.037190914E0,1.194418955E1
1.116290678E0,-1.049103165E1,2.171486616E0,4.819443703E0,1.174751619E1
1.118814532E0,-1.042642593E1,2.137987137E0,4.627718925E0,1.160590924E1
1.121338387E0,-1.040249729E1,2.073380709E0,4.441078663E0,1.149930594E1
1.123862241E0,-1.041206837E1,2.008774519E0,4.333401680E0,1.145533556E1
1.126386095E0,-9.638588905E0,1.484447360E0,4.110570431E0,1.058313608E1
1.128909949E0,-8.254939079E0,3.711866140E-1,3.890430450E0,9.133304320E0
1.131433803E0,-8.288438797E0,2.727817893E-1,4.024428368E0,9.217844178E0
1.133957657E0,-8.537292480E0,3.257229924E-1,4.273581028E0,9.552745844E0
1.136481512E0,-8.843872070E0,5.554339290E-1,4.515256405E0,9.945356728E0
1.139005366E0,-9.164510727E0,7.803592682E-1,4.754538536E0,1.035388111E1
1.141529220E0,-9.583553314E0,1.055832982E0,5.032404900E0,1.087586210E1
1.144053074E0,-1.006959629E1,1.350150228E0,5.379663467E0,1.149610604E1
1.146576928E0,-1.042642593E1,1.613659739E0,5.681159019E0,1.198289712E1
1.149100782E0,-1.050778198E1,1.821835399E0,5.896812439E0,1.218626125E1
1.151624637E0,-1.029212856E1,1.929512382E0,5.985346794E0,1.206131438E1
1.154148491E0,-9.866206169E0,1.941476464E0,5.942276001E0,1.167998284E1
1.156672345E0,-9.380164146E0,1.860120535E0,5.819942951E0,1.119460869E1
1.159196199E0,-8.874979019E0,1.683051586E0,5.638088226E0,1.064828409E1
1.161720001E0,-8.415258408E0,1.441376567E0,5.449055195E0,1.012849164E1
1.164243803E0,-8.048856735E0,1.165902853E0,5.305186749E0,9.710222997E0
1.166767605E0,-7.804789066E0,8.234301209E-1,5.254937649E0,9.444953109E0
1.169291407E0,-7.620542049E0,4.668995142E-1,5.298008442E0,9.292983898E0
1.171815210E0,-7.424031258E0,1.363908947E-1,5.449055195E0,9.210159885E0
1.174339012E0,-7.182356358E0,-1.100698411E-1,5.652445316E0,9.140486654E0
1.176862814E0,-6.854240417E0,-2.994019389E-1,5.901597977E0,9.049812810E0
1.179386616E0,-6.502495766E0,-4.214358926E-1,6.109773636E0,8.932490877E0
1.181910418E0,-6.155237198E0,-4.860421121E-1,6.267699718E0,8.798138534E0
1.184434220E0,-5.831906796E0,-5.195416212E-1,6.401698112E0,8.675413482E0
1.186958022E0,-5.551946640E0,-5.362913609E-1,6.490531445E0,8.557962278E0
1.189481824E0,-5.334199905E0,-5.338985324E-1,6.564708710E0,8.475502151E0
1.192005626E0,-5.142475128E0,-5.626124144E-1,6.598208427E0,8.384386538E0
1.194529428E0,-4.953442097E0,-5.985047817E-1,6.588637352E0,8.264680196E0
1.197053230E0,-4.756931305E0,-6.559324861E-1,6.514459610E0,8.093010990E0
1.199577032E0,-4.529613495E0,-7.157530785E-1,6.380162239E0,7.857236860E0
1.202100835E0,-4.127319813E0,-6.511468887E-1,6.246164322E0,7.514873907E0
1.204624637E0,-3.550350666E0,-4.621138871E-1,6.169594288E0,7.133192327E0
1.207148439E0,-3.390031576E0,-5.410770178E-1,6.104988098E0,7.003995867E0
1.209672241E0,-3.315854073E0,-6.296114326E-1,5.949454308E0,6.840124659E0
1.212196043E0,-3.179463148E0,-7.181459069E-1,5.812764645E0,6.664304335E0
1.214719845E0,-3.018844843E0,-8.500502706E-1,5.750551224E0,6.550179312E0
1.217243647E0,-2.868097067E0,-1.048654556E0,5.786443233E0,6.542826794E0
1.219767449E0,-2.686242580E0,-1.278365493E0,5.927918911E0,6.632521402E0
1.222291251E0,-2.480160713E0,-1.522732496E0,6.210271835E0,6.858380836E0
1.224815053E0,-2.319841623E0,-1.817049742E0,6.571887493E0,7.202294089E0
1.227338855E0,-2.188236237E0,-2.116451740E0,6.985845566E0,7.620353277E0
1.229862657E0,-2.011167526E0,-2.348555326E0,7.337889671E0,7.962733938E0
1.232386460E0,-1.783550143E0,-2.590529680E0,7.390532017E0,8.031927454E0
1.234910262E0,-1.513161182E0,-2.844168901E0,7.313961506E0,7.992057708E0
1.237434064E0,-1.309472203E0,-3.018844843E0,7.402495861E0,8.100931219E0
1.239957866E0,-1.247258782E0,-3.085843801E0,7.759325504E0,8.443057427E0
1.242481668E0,-1.149153113E0,-3.073879719E0,8.281260490E0,8.907781133E0
1.245005470E0,-9.816554785E-1,-2.949453115E0,8.767302513E0,9.302070442E0
1.247529272E0,-8.596215248E-1,-3.047558784E0,8.884550095E0,9.431956006E0
1.250053074E0,-6.726822853E-1,-3.282354355E0,8.740981102E0,9.361148551E0
1.252576876E0,-3.855435550E-1,-3.581457376E0,8.417651176E0,9.155999787E0
1.255100678E0,5.264209956E-2,-3.880859137E0,7.984251022E0,8.877618105E0
1.257624480E0,5.721837282E-1,-4.144069672E0,7.622934818E0,8.695392050E0
1.260148282E0,1.046261668E0,-4.429114819E0,7.419245720E0,8.703845622E0
1.262672085E0,1.441376567E0,-4.733003139E0,7.450352192E0,8.943524636E0
1.265195887E0,1.659123421E0,-5.037190914E0,7.632505894E0,9.294144880E0
1.267719689E0,1.757229090E0,-5.348556995E0,7.843074322E0,9.654466884E0
1.270243491E0,1.764407635E0,-5.642873764E0,7.974679470E0,9.927269074E0
1.272767293E0,1.663909078E0,-5.894419670E0,8.046463966E0,1.011228753E1
1.275291095E0,1.544267893E0,-6.119344711E0,7.977072716E0,1.017176642E1
1.277814897E0,1.422233939E0,-6.294020653E0,7.831110477E0,1.014710484E1
1.280338699E0,1.304686546E0,-6.454638958E0,7.682755470E0,1.011875994E1
1.282862501E0,1.132403374E0,-6.569494724E0,7.553243637E0,1.007432815E1
1.285386303E0,9.194421172E-1,-6.679564476E0,7.426424026E0,1.003063952E1
1.287910105E0,6.559324861E-1,-6.748956203E0,7.268497944E0,9.940307823E0
1.290433907E0,3.759722710E-1,-6.813562393E0,7.110571384E0,9.855263216E0
1.292957710E0,1.076770201E-1,-6.847062111E0,6.957131863E0,9.761943333E0
1.295481512E0,-8.614161611E-2,-6.811169624E0,6.799205780E0,9.624377968E0
1.298005314E0,-3.089732230E-1,-6.765706062E0,6.622136593E0,9.472219171E0
1.300529116E0,-5.697908998E-1,-6.686742783E0,6.605386734E0,9.416385964E0
1.303052918E0,-9.314061999E-1,-6.591030121E0,6.835097790E0,9.540846784E0
1.305576720E0,-1.527518153E0,-6.435197353E0,7.263712406E0,9.823777003E0
1.308100522E0,-2.264806747E0,-6.222236156E0,7.685148239E0,1.014431249E1
1.310624324E0,-3.054737091E0,-5.966204166E0,8.032107353E0,1.046144155E1
1.313148126E0,-3.840181351E0,-5.690730572E0,8.254939079E0,1.073663944E1
1.315671928E0,-4.555934429E0,-5.405984402E0,8.365009308E0,1.095237813E1
1.318195730E0,-5.214259624E0,-5.168796062E0,8.381758690E0,1.114265834E1
1.320719532E0,-5.807978630E0,-4.970191956E0,8.295617104E0,1.128063327E1
1.323243335E0,-6.329913139E0,-4.771587372E0,8.096714020E0,1.133104692E1
1.325767137E0,-6.780063152E0,-4.651647091E0,7.831110477E0,1.135488302E1
1.328290939E0,-7.167999268E0,-4.577469826E0,7.550850868E0,1.137316105E1
1.330814741E0,-7.486244678E0,-4.548755646E0,7.249355316E0,1.137049646E1
1.333338543E0,-7.697112083E0,-4.412364960E0,6.859025955E0,1.121430943E1
1.335862345E0,-7.907680511E0,-4.414757729E0,6.588637352E0,1.119962674E1
1.338386147E0,-8.211868286E0,-4.599005222E0,6.500102520E0,1.143839860E1
1.340909949E0,-8.609076500E0,-4.809872627E0,6.478567123E0,1.179927561E1
1.343433751E0,-9.001798630E0,-4.998905659E0,6.401698112E0,1.212448659E1
1.345957553E0,-9.274879456E0,-5.104189873E0,6.188736439E0,1.226281378E1
1.348481355E0,-9.483055115E0,-5.154438972E0,5.879763603E0,1.229098025E1
1.351005157E0,-9.569196701E0,-5.111368179E0,5.477769375E0,1.215325337E1
1.353528960E0,-9.550054550E0,-4.972584724E0,5.068297386E0,1.190032685E1
1.356052762E0,-9.451948166E0,-4.728217602E0,4.673182487E0,1.155569126E1
1.358576564E0,-9.274879456E0,-4.433900356E0,4.295116425E0,1.114140415E1
1.361100366E0,-9.020941734E0,-4.170390606E0,3.978965044E0,1.070521884E1
1.363624168E0,-8.760123253E0,-3.904787540E0,3.708575964E0,1.028302780E1
1.366147970E0,-8.494221687E0,-3.691826344E0,3.452244759E0,9.884299555E0
1.368671772E0,-8.259724617E0,-3.514458179E0,3.205784082E0,9.531606298E0
1.371195574E0,-8.089534760E0,-3.406781197E0,3.006880760E0,9.278365301E0
1.373719376E0,-7.991429329E0,-3.390031576E0,2.836990356E0,9.132566512E0
1.376243178E0,-7.871788502E0,-3.423531055E0,2.691028118E0,8.995957505E0
1.378766980E0,-7.771289825E0,-3.533600807E0,2.580958366E0,8.918555169E0
1.381290782E0,-7.711469173E0,-3.691826344E0,2.504088879E0,8.908804615E0
1.383814585E0,-7.622934818E0,-3.854538202E0,2.470589399E0,8.892154518E0
1.386338387E0,-7.567600727E0,-4.029214382E0,2.475374937E0,8.923599631E0
1.388862189E0,-7.529315472E0,-4.194318771E0,2.508874655E0,8.976488927E0
1.391385991E0,-7.510172844E0,-4.354937077E0,2.554637194E0,9.049549396E0
1.393909793E0,-7.517351627E0,-4.486542225E0,2.609672308E0,9.135098586E0
1.396433595E0,-7.574779034E0,-4.618147850E0,2.659921408E0,9.261735737E0
1.398957397E0,-7.661220074E0,-4.682754040E0,2.707777977E0,9.378408180E0
1.401481199E0,-7.761718273E0,-4.697110653E0,2.791526794E0,9.492088331E0
1.404005001E0,-7.883752346E0,-4.711467743E0,2.896811008E0,9.630316369E0
1.406528803E0,-8.034500122E0,-4.709074974E0,3.028416157E0,9.792848602E0
1.409052605E0,-8.180761337E0,-4.723432064E0,3.167499065E0,9.963368750E0
1.411576407E0,-8.266902924E0,-4.656432629E0,3.308675528E0,1.004845175E1
1.414100210E0,-8.439186096E0,-4.677968502E0,3.382853031E0,1.022482009E1
1.416624012E0,-8.731410027E0,-4.805087090E0,3.411566973E0,1.053400077E1
1.419147814E0,-9.030512810E0,-4.958227634E0,3.433102369E0,1.085911482E1
1.421671616E0,-9.322735786E0,-5.068297386E0,3.449851990E0,1.115806971E1
1.424195418E0,-9.569196701E0,-5.173581600E0,3.442673683E0,1.140997258E1
1.426719220E0,-9.774979591E0,-5.281258583E0,3.445066452E0,1.163229991E1
1.429243022E0,-9.954740524E0,-5.370092392E0,3.500101328E0,1.183999411E1
1.431766824E0,-1.000738239E1,-5.468197823E0,3.547957659E0,1.194306884E1
1.434290626E0,-9.832706451E0,-5.494519234E0,3.567100286E0,1.181507775E1
1.436814428E0,-9.377771378E0,-5.358128071E0,3.516851187E0,1.135871360E1
1.439338230E0,-8.762516975E0,-5.269294739E0,3.423531055E0,1.078275177E1
1.441862032E0,-8.391329765E0,-5.429912567E0,3.433102369E0,1.056809148E1
1.444385835E0,-8.307580948E0,-5.743372440E0,3.524029493E0,1.069677578E1
1.446909637E0,-8.374580383E0,-6.167201042E0,3.593421459E0,1.100366498E1
1.449433439E0,-8.585148811E0,-6.610172749E0,3.612564087E0,1.142146152E1
1.451957241E0,-8.870193481E0,-7.079464912E0,3.610171080E0,1.190934470E1
1.454481043E0,-9.166903496E0,-7.464709282E0,3.646063566E0,1.237124828E1
1.457004845E0,-9.413662910E0,-7.752147198E0,3.687040567E0,1.273998052E1
1.459528647E0,-9.514162064E0,-7.895716667E0,3.727718592E0,1.291346225E1
1.462052449E0,-9.571589470E0,-7.931608677E0,3.785146236E0,1.299434774E1
1.464576251E0,-9.617053032E0,-7.924430370E0,3.849752426E0,1.304242690E1
1.467100053E0,-9.585947037E0,-7.876574039E0,3.888037682E0,1.300183203E1
1.469623855E0,-9.554840088E0,-7.768897057E0,3.907180309E0,1.291962803E1
1.472147657E0,-9.518947601E0,-7.606184959E0,3.900001764E0,1.279353066E1
1.474671460E0,-9.518947601E0,-7.416852951E0,3.849752426E0,1.266651747E1
1.477195262E0,-9.533304214E0,-7.239784241E0,3.811467409E0,1.256286786E1
1.479719064E0,-9.609874725E0,-7.069893837E0,3.730111361E0,1.249987287E1
1.482242866E0,-9.715159416E0,-6.906882763E0,3.602992773E0,1.245274704E1
1.484766668E0,-9.899705887E0,-6.772884369E0,3.490530014E0,1.249239525E1
1.487290470E0,-1.007438183E1,-6.681957245E0,3.323032379E0,1.253731495E1
1.489814272E0,-1.026341438E1,-6.595815659E0,3.174677372E0,1.260638867E1
1.492338074E0,-1.041685390E1,-6.550352097E0,3.011666298E0,1.266838947E1
1.494861876E0,-1.054128075E1,-6.471388817E0,2.853740215E0,1.269414456E1
1.497385678E0,-1.061545849E1,-6.401698112E0,2.650350094E0,1.267651582E1
1.499909480E0,-1.064656544E1,-6.315556049E0,2.453839540E0,1.261970413E1
1.502433282E0,-1.064177990E1,-6.217450619E0,2.260020971E0,1.253043760E1
1.504957085E0,-1.067049313E1,-6.128916264E0,2.087737799E0,1.248125343E1
1.507480887E0,-1.067288589E1,-6.054738522E0,1.910369754E0,1.241852908E1
1.510004689E0,-1.064656544E1,-5.999703884E0,1.711765528E0,1.234001392E1
1.512528491E0,-1.062263680E1,-5.920740604E0,1.513161182E0,1.225500871E1
1.515052293E0,-1.061067295E1,-5.846263885E0,1.299900889E0,1.218420798E1
1.517576095E0,-1.055563831E1,-5.760122299E0,1.070189953E0,1.207252317E1
1.520099897E0,-1.046949673E1,-5.669195175E0,8.066803217E-1,1.193318351E1
1.522623699E0,-1.040249729E1,-5.580660820E0,4.740779996E-1,1.181441810E1
1.525147501E0,-1.037348461E1,-5.492125988E0,-5.503492057E-2,1.173778768E1
1.527671303E0,-1.036151981E1,-5.415555954E0,-5.051847100E-1,1.170233100E1
1.530195105E0,-1.037348461E1,-5.341378212E0,-8.258228898E-1,1.169707175E1
1.532718907E0,-1.037827015E1,-5.271687508E0,-1.036690354E0,1.168648396E1
1.535242710E0,-1.037348461E1,-5.161617756E0,-1.228116274E0,1.165159862E1
1.537766512E0,-1.036630630E1,-5.015655518E0,-1.438983679E0,1.160550648E1
1.540290314E0,-1.037348461E1,-4.862514496E0,-1.716551185E0,1.158446279E1
1.542814116E0,-1.039292622E1,-4.725824833E0,-1.987239242E0,1.158859161E1
1.545337918E0,-1.040967560E1,-4.610969067E0,-2.245664120E0,1.160454175E1
1.547861720E0,-1.041924667E1,-4.515256405E0,-2.465803623E0,1.162017337E1
1.550385522E0,-1.039531898E1,-4.426722050E0,-2.616850615E0,1.159769081E1
1.552909324E0,-1.034955597E1,-4.362115860E0,-2.655135870E0,1.154084529E1
1.555433126E0,-1.028255749E1,-4.333401680E0,-2.592922449E0,1.145568005E1
1.557956928E0,-1.025623608E1,-4.304687977E0,-2.456232548E0,1.139095235E1
1.560480730E0,-1.028734303E1,-4.316651821E0,-2.214557409E0,1.137396914E1
1.563004532E0,-1.044317532E1,-4.347758770E0,-1.872084618E0,1.146593292E1
1.565528335E0,-1.075663471E1,-4.378865242E0,-1.553839207E0,1.171725511E1
1.568052137E0,-1.116610718E1,-4.414757729E0,-1.410269856E0,1.208970208E1
1.570575939E0,-1.161147118E1,-4.426722050E0,-1.299900889E0,1.249447371E1
1.573099741E0,-1.201346493E1,-4.438685894E0,-1.175474167E0,1.286106572E1
1.575623543E0,-1.233679581E1,-4.431507587E0,-1.070189953E0,1.315218981E1
1.578147397E0,-1.258564854E1,-4.388436794E0,-9.409775138E-1,1.336197460E1
1.580671251E0,-1.275823116E1,-4.302295208E0,-7.875377536E-1,1.348712060E1
1.583195105E0,-1.290658665E1,-4.189533234E0,-6.152545214E-1,1.358347178E1
1.585718960E0,-1.300947762E1,-4.036392689E0,-4.046861231E-1,1.362727943E1
1.588242814E0,-1.309561920E1,-3.823431492E0,-1.962114573E-1,1.364376669E1
1.590766668E0,-1.317218971E1,-3.593421459E0,6.699903309E-2,1.365370823E1
1.593290522E0,-1.320359516E1,-3.373281717E0,2.850449979E-1,1.363067149E1
1.595814376E0,-1.321077347E1,-3.141177893E0,5.697908998E-1,1.359103366E1
1.598338230E0,-1.317697525E1,-2.925524712E0,7.612167001E-1,1.351927596E1
1.600862085E0,-1.308844090E1,-2.722134829E0,8.500502706E-1,1.339551748E1
1.603385939E0,-1.295922852E1,-2.523231506E0,8.691928387E-1,1.323116764E1
1.605909793E0,-1.280130196E1,-2.355733871E0,7.540382147E-1,1.303807453E1
1.608433647E0,-1.267448235E1,-2.228914261E0,6.655037999E-1,1.288617309E1
1.610957501E0,-1.257368469E1,-2.116451740E0,7.037889361E-1,1.276997391E1
1.613481355E0,-1.245643616E1,-1.982453585E0,1.043868899E0,1.265632594E1
1.616005210E0,-1.229133129E1,-1.891227245E0,8.715856671E-1,1.246648415E1
1.618529116E0,-1.216929817E1,-1.898405671E0,3.448655605E-1,1.232131058E1
1.621053022E0,-1.210469151E1,-1.965703845E0,-1.746760458E-1,1.226450406E1
1.623576928E0,-1.202303600E1,-2.078166485E0,-7.564310431E-1,1.222474370E1
1.626100835E0,-1.181486130E1,-2.281556368E0,-1.805085540E0,1.216777633E1
1.628624741E0,-1.156600761E1,-2.516052961E0,-3.122035265E0,1.224132995E1
1.631148647E0,-1.132642555E1,-2.748456001E0,-4.319045067E0,1.242964507E1
1.633672553E0,-1.102732277E1,-2.968595505E0,-5.472983360E0,1.266364693E1
1.636196460E0,-1.070638561E1,-3.232105255E0,-6.380162239E0,1.287554533E1
1.638720366E0,-1.028495026E1,-3.430709362E0,-7.160820961E0,1.299335697E1
1.641244272E0,-9.856635094E0,-3.626920938E0,-7.800003529E0,1.308234940E1
1.643768178E0,-9.449555397E0,-3.823431492E0,-8.118248940E0,1.303145009E1
1.646292085E0,-9.016156197E0,-3.993321896E0,-8.154440880E0,1.279580394E1
1.648815991E0,-8.546863556E0,-4.218546391E0,-7.926823139E0,1.239675503E1
1.651339897E0,-8.041678429E0,-4.431507587E0,-7.514958382E0,1.186513594E1
1.653863803E0,-7.567600727E0,-4.637290478E0,-6.878168583E0,1.122863513E1
1.656387710E0,-7.184749126E0,-4.876871586E0,-6.076273918E0,1.059837729E1
1.658911616E0,-6.885347366E0,-5.082654476E0,-5.142475128E0,9.984309456E0
1.661435522E0,-6.698707104E0,-5.276473045E0,-4.167997837E0,9.491367163E0
1.663959428E0,-6.617351055E0,-5.384449005E0,-3.294318676E0,9.145171492E0
1.666483335E0,-6.471388817E0,-5.367699623E0,-2.472982168E0,8.763943933E0
1.669007241E0,-6.277271271E0,-5.259723186E0,-1.757229090E0,8.375958254E0
1.671531147E0,-5.947061539E0,-5.018048286E0,-1.161117196E0,7.867435586E0
1.674055053E0,-5.738586903E0,-4.661218643E0,-8.859425783E-1,7.446021295E0
1.676578960E0,-5.537590027E0,-4.191926003E0,-8.644071817E-1,6.998881817E0
1.679102866E0,-5.290830135E0,-3.914358854E0,-6.774678826E-1,6.616196150E0
1.681626772E0,-5.386841774E0,-3.933501244E0,-4.453641176E-1,6.684971618E0
1.684150678E0,-5.688337803E0,-4.216153622E0,-2.368894368E-1,7.084437517E0
1.686674585E0,-6.088238239E0,-4.596612453E0,-3.161516786E-1,7.635145237E0
1.689198491E0,-6.588637352E0,-5.061119080E0,-7.109674215E-1,8.338497657E0
1.691722397E0,-7.167999268E0,-5.480162144E0,-1.228116274E0,9.106078201E0
1.694246303E0,-7.706683636E0,-5.803193092E0,-1.666301847E0,9.790126893E0
1.696770210E0,-8.171190262E0,-5.982954025E0,-1.673480392E0,1.026472726E1
1.699294116E0,-8.587541580E0,-6.006882191E0,-1.268794179E0,1.055643608E1
1.701817970E0,-8.834300995E0,-6.023632050E0,-9.026923180E-1,1.073051120E1
1.704341824E0,-8.673683167E0,-5.944668770E0,-1.182652593E0,1.058161300E1
1.706865678E0,-8.307580948E0,-5.896812439E0,-1.946262121E0,1.037189637E1
1.709389532E0,-8.048856735E0,-5.803193092E0,-2.561815739E0,1.024812396E1
1.711913387E0,-7.955537319E0,-5.638088226E0,-2.762812853E0,1.013468045E1
1.714437241E0,-7.984251022E0,-5.425127029E0,-2.585743904E0,9.993314726E0
1.716961095E0,-7.989036560E0,-5.135296345E0,-2.305484533E0,9.772984838E0
1.719484949E0,-8.005785942E0,-4.884049892E0,-2.286342144E0,9.652663482E0
1.722008803E0,-8.029714584E0,-4.634897232E0,-2.461018085E0,9.592455300E0
1.724532657E0,-8.103892326E0,-4.448257446E0,-2.760420084E0,9.647796857E0
1.727056512E0,-8.065607071E0,-4.256831646E0,-2.808276415E0,9.542591341E0
1.729580366E0,-8.190332413E0,-4.103391647E0,-2.892025232E0,9.606413378E0
1.732104220E0,-8.400900841E0,-3.995714664E0,-2.973381281E0,9.766364055E0
1.734628074E0,-8.515756607E0,-3.943072557E0,-3.023630619E0,9.859425638E0
1.737151928E0,-8.664112091E0,-3.950251102E0,-3.165106058E0,1.003440175E1
1.739675782E0,-9.083154678E0,-3.993321896E0,-3.531208038E0,1.053184451E1
1.742199637E0,-9.406484604E0,-4.007678986E0,-3.732504129E0,1.088462358E1
1.744723491E0,-9.640981674E0,-3.967000723E0,-3.868895054E0,1.111998072E1
1.747247345E0,-9.741479874E0,-3.892823458E0,-3.809074640E0,1.116062517E1
1.749771199E0,-9.698409081E0,-3.847359657E0,-3.761218071E0,1.109090061E1
1.752295053E0,-9.854242325E0,-3.830610037E0,-4.045963764E0,1.132031306E1
1.754818907E0,-9.892526627E0,-3.835395575E0,-4.302295208E0,1.144910854E1
1.757342762E0,-9.827920914E0,-3.809074640E0,-4.522434711E0,1.146950281E1
1.759866616E0,-9.798908234E0,-3.828217030E0,-4.601397991E0,1.148245234E1
1.762390470E0,-9.818050385E0,-3.821038723E0,-4.596612453E0,1.149448982E1
1.764914324E0,-9.873384476E0,-3.811467409E0,-4.386044025E0,1.145636884E1
1.767438178E0,-9.976275444E0,-3.871287823E0,-4.134498596E0,1.147201028E1
1.769962032E0,-1.025145054E1,-3.897608995E0,-4.019642830E0,1.168080145E1
1.772485887E0,-1.045992470E1,-3.907180309E0,-3.849752426E0,1.181087111E1
1.775009741E0,-1.064895821E1,-3.926322937E0,-3.665505171E0,1.192695480E1
1.777533595E0,-1.078056335E1,-3.974179268E0,-3.394817114E0,1.198079423E1
1.780057449E0,-1.101057339E1,-4.041178226E0,-3.165106058E0,1.214832269E1
1.782581303E0,-1.121874905E1,-4.122534275E0,-2.923131943E0,1.230448371E1
1.785105157E0,-1.137189007E1,-4.160819530E0,-2.573779821E0,1.237968681E1
1.787629012E0,-1.141017437E1,-4.230510235E0,-2.068595171E0,1.234375883E1
1.790152866E0,-1.134796143E1,-4.283152580E0,-1.486840129E0,1.222016031E1
1.792676720E0,-1.126660538E1,-4.335794449E0,-9.002995491E-1,1.210562058E1
1.795200574E0,-1.113021469E1,-4.350151539E0,-3.017947674E-1,1.195393565E1
1.797724428E0,-1.092173958E1,-4.292723656E0,2.488535494E-1,1.173770846E1
1.800248282E0,-1.063938713E1,-4.203890324E0,7.851449251E-1,1.146672163E1
1.802772137E0,-1.025145054E1,-4.091427803E0,1.249651670E0,1.110826939E1
1.805295991E0,-9.832706451E0,-3.962215185E0,1.656730533E0,1.072967946E1
1.807819845E0,-9.353842735E0,-3.868895054E0,1.958226204E0,1.031006172E1
1.810343699E0,-9.020941734E0,-3.761218071E0,2.126022816E0,1.000220596E1
1.812867553E0,-8.772088051E0,-3.636492252E0,2.370090723E0,9.787284338E0
1.815391407E0,-8.618648529E0,-3.509672642E0,2.494517565E0,9.634392685E0
1.817915262E0,-8.702695847E0,-3.346960783E0,2.161915302E0,9.571464844E0
1.820439116E0,-8.843872070E0,-3.189034462E0,1.522732496E0,9.523797995E0
1.822962970E0,-8.889336586E0,-3.059522867E0,7.755736113E-1,9.433053564E0
1.825486824E0,-8.958727837E0,-2.903989315E0,4.546362907E-2,9.417750545E0
1.828010678E0,-9.092725754E0,-2.731706142E0,-7.013961077E-1,9.520075450E0
1.830534532E0,-9.224330902E0,-2.571387053E0,-1.268794179E0,9.659717938E0
1.833058387E0,-9.566803932E0,-2.451446772E0,-1.896012783E0,1.005625145E1
1.835582241E0,-9.815657616E0,-2.348555326E0,-2.420340061E0,1.037886760E1
1.838106095E0,-1.004088211E1,-2.255235434E0,-2.947060108E0,1.070469821E1
1.840629949E0,-1.029930687E1,-2.200200319E0,-3.492922783E0,1.109581511E1
1.843153803E0,-1.033998489E1,-2.154736757E0,-3.868895054E0,1.124840109E1
1.845677657E0,-1.023230743E1,-2.145165443E0,-4.069892406E0,1.121899614E1
1.848201512E0,-1.033041382E1,-2.166700840E0,-4.445864677E0,1.145328577E1
1.850725366E0,-1.047188950E1,-2.173879385E0,-4.642076015E0,1.165912050E1
1.853249220E0,-1.059392357E1,-2.164308071E0,-4.831408024E0,1.184305491E1
1.855773074E0,-1.067288589E1,-2.092523336E0,-4.910371304E0,1.193318455E1
1.858296928E0,-1.049342442E1,-2.027917147E0,-4.584648132E0,1.162941969E1
1.860820782E0,-1.042642593E1,-2.030309916E0,-4.481756687E0,1.152903548E1
1.863344637E0,-1.054845905E1,-1.996810555E0,-4.606183529E0,1.168221586E1
1.865868491E0,-1.051256752E1,-2.003988981E0,-4.436293125E0,1.158493610E1
1.868392345E0,-1.034477043E1,-2.118844509E0,-3.974179268E0,1.128263614E1
1.870916199E0,-1.017488003E1,-2.238485575E0,-3.602992773E0,1.102363634E1
1.873440053E0,-9.942776680E0,-2.353341103E0,-3.141177893E0,1.068943502E1
1.875963907E0,-9.736694336E0,-2.362912416E0,-2.492124796E0,1.032459479E1
1.878487762E0,-9.638588905E0,-2.374876499E0,-1.718943954E0,1.007458202E1
1.881011616E0,-9.674481392E0,-2.377269268E0,-9.768698215E-1,1.001005864E1
1.883535470E0,-9.715159416E0,-2.434697151E0,-8.614161611E-2,1.001596191E1
1.886059324E0,-9.497411728E0,-2.870489836E0,3.065803945E-1,9.926456214E0
1.888583178E0,-8.886942863E0,-3.397209883E0,1.182652593E0,9.587359157E0
1.891107032E0,-7.811967850E0,-3.923929930E0,2.504088879E0,9.093653220E0
1.893630887E0,-6.918846607E0,-4.242474556E0,3.272783279E0,8.751007892E0
1.896154741E0,-6.057131290E0,-4.326223373E0,3.471387386E0,8.213134513E0
1.898678595E0,-5.484947681E0,-4.345366001E0,3.143570662E0,7.671303231E0
1.901202449E0,-5.226223946E0,-4.400400639E0,2.561815739E0,7.296563738E0
1.903726303E0,-5.214259624E0,-4.474578381E0,1.817049742E0,7.107181219E0
1.906250157E0,-5.199902534E0,-4.575077057E0,1.244866014E0,7.037045391E0
1.908774012E0,-5.171188831E0,-4.663611412E0,6.296114326E-1,6.991915037E0
1.911297866E0,-4.884049892E0,-4.754538536E0,2.679961324E-1,6.821392964E0
1.913821720E0,-4.587040901E0,-4.855336189E0,-2.679961324E-1,6.684837744E0
1.916345574E0,-4.701896667E0,-4.917549610E0,-1.299900889E0,6.926750231E0
1.918869428E0,-5.032404900E0,-4.881657124E0,-2.102094650E0,7.319458810E0
1.921393282E0,-5.269294739E0,-4.831408024E0,-2.269592285E0,7.500601288E0
1.923917137E0,-5.463412285E0,-4.764110088E0,-2.336591244E0,7.616119574E0
1.926440991E0,-5.724229813E0,-4.685146809E0,-2.700599432E0,7.874683794E0
1.928964845E0,-6.090631008E0,-4.524827480E0,-2.992523909E0,8.156288932E0
1.931488699E0,-6.217450619E0,-4.484149456E0,-2.662314177E0,8.114937173E0
1.934012553E0,-6.492924213E0,-4.460221291E0,-2.793919563E0,8.358087420E0
1.936536407E0,-6.899703979E0,-4.338187218E0,-3.215355396E0,8.761523479E0
1.939060262E0,-7.347461224E0,-4.278367043E0,-3.239283562E0,9.098492676E0
1.941584116E0,-7.721040249E0,-4.175176620E0,-3.177070379E0,9.334898957E0
1.944107970E0,-8.120641708E0,-4.057928085E0,-3.227319479E0,9.634686976E0
1.946631824E0,-8.527720451E0,-3.773182154E0,-3.545564890E0,9.976469819E0
1.949155678E0,-8.863015175E0,-3.524029493E0,-3.459423304E0,1.014590713E1
1.951679532E0,-9.152546883E0,-3.473780155E0,-3.196212769E0,1.029815707E1
1.954203387E0,-9.509376526E0,-3.492922783E0,-3.205784082E0,1.062571424E1
1.956727241E0,-9.911669731E0,-3.531208038E0,-2.956631422E0,1.092942343E1
1.959251095E0,-1.020120144E1,-3.559921980E0,-2.631207705E0,1.112028818E1
1.961774949E0,-1.040489006E1,-3.495315790E0,-2.528316259E0,1.126371842E1
1.964298803E0,-1.052213860E1,-3.315854073E0,-2.477767944E0,1.130706075E1
1.966822657E0,-1.046471119E1,-3.315854073E0,-2.111665964E0,1.117873882E1
1.969346512E0,-1.030409241E1,-3.583850145E0,-1.728515267E0,1.104563566E1
1.971870366E0,-1.022512913E1,-3.854538202E0,-1.311864972E0,1.100598565E1
1.974394220E0,-1.010309505E1,-4.060320854E0,-6.726822853E-1,1.090922713E1
1.976918074E0,-9.995418549E0,-4.283152580E0,1.531406492E-1,1.087553401E1
1.979441928E0,-9.909276962E0,-4.297509670E0,6.631109715E-1,1.082137124E1
1.981965782E0,-9.964311600E0,-3.952643871E0,8.258228898E-1,1.075141305E1
1.984489637E0,-9.868598938E0,-3.715754509E0,1.189831018E0,1.061186951E1
1.987013491E0,-9.748658180E0,-3.631706476E0,1.331007600E0,1.048795545E1
1.989533803E0,-9.715159416E0,-3.675076485E0,1.230509043E0,1.045966836E1
1.992029116E0,-9.660123825E0,-3.916751623E0,1.115653515E0,1.048349266E1
1.994503282E0,-9.593125343E0,-4.321437836E0,1.175474167E0,1.058700233E1
1.996977449E0,-9.351449966E0,-4.776372910E0,1.316650629E0,1.058285989E1
1.999451147E0,-9.071190834E0,-5.020441055E0,1.175474167E0,1.043422594E1
2.001925053E0,-9.042476654E0,-4.888835907E0,6.750751138E-1,1.030159342E1
2.004399480E0,-8.939585686E0,-4.697110653E0,4.381856322E-1,1.010796950E1
2.006873960E0,-8.752944946E0,-4.589433670E0,3.185445070E-1,9.888296984E0
2.009348178E0,-8.678468704E0,-4.543970108E0,1.172483116E-1,9.796796954E0
2.011822397E0,-8.755337715E0,-4.460221291E0,-3.017947674E-1,9.830594720E0
2.014296720E0,-8.882157326E0,-4.555934429E0,-5.697908998E-1,9.998695863E0
2.016770939E0,-9.109476089E0,-4.589433670E0,-8.979067206E-1,1.023971154E1
2.019245418E0,-9.238688469E0,-4.610969067E0,-9.577272534E-1,1.036974647E1
2.021720053E0,-9.282057762E0,-4.725824833E0,-8.282157183E-1,1.044872997E1
2.024194376E0,-9.339486122E0,-4.862514496E0,-7.564310431E-1,1.055662049E1
2.026668751E0,-9.492626190E0,-4.749752998E0,-1.079761267E0,1.066939501E1
2.029142970E0,-9.612267494E0,-4.637290478E0,-1.307079315E0,1.075214424E1
2.031616824E0,-9.719944954E0,-4.572684288E0,-1.568196177E0,1.085569025E1
2.034090835E0,-9.686445236E0,-4.749752998E0,-1.266401410E0,1.086237301E1
2.036565418E0,-9.573982239E0,-4.922335148E0,-1.144367456E0,1.082589932E1
2.039040105E0,-9.451948166E0,-4.915156841E0,-1.366899967E0,1.074088015E1
2.041514585E0,-9.303593636E0,-4.797908306E0,-1.563410521E0,1.058399882E1
2.043989064E0,-9.152546883E0,-4.821836948E0,-1.381256819E0,1.043681448E1
2.046463387E0,-9.054440498E0,-4.888835907E0,-9.768698215E-1,1.033624129E1
2.048937553E0,-8.973084450E0,-4.819443703E0,-3.233301640E-1,1.019057528E1
2.051411824E0,-8.886942863E0,-4.831408024E0,2.584248483E-1,1.011864815E1
2.053886303E0,-8.910871506E0,-4.931906700E0,5.530411601E-1,1.019966613E1
2.056360626E0,-8.951549530E0,-5.166403294E0,8.620143533E-1,1.037135626E1
2.058834585E0,-8.908478737E0,-5.472983360E0,1.182652593E0,1.052203438E1
2.061308751E0,-8.757730484E0,-5.752943993E0,1.275972724E0,1.055567687E1
2.063783126E0,-8.668897629E0,-6.035595894E0,1.431805253E0,1.065965619E1
2.066257657E0,-8.599505424E0,-6.286842346E0,1.776371717E0,1.079960077E1
2.068732293E0,-8.542078018E0,-6.372983932E0,2.082952023E0,1.085913027E1
2.071206616E0,-8.592327118E0,-6.488138676E0,2.386840582E0,1.102819281E1
2.073680574E0,-8.757730484E0,-6.430411816E0,2.554637194E0,1.116128176E1
2.076154741E0,-8.886942863E0,-6.406483650E0,2.142772675E0,1.116298620E1
2.078629116E0,-9.047262192E0,-6.325127602E0,1.539482236E0,1.114586012E1
2.081103282E0,-9.262915611E0,-6.265306950E0,9.840483069E-1,1.122604240E1
2.083577397E0,-9.538089752E0,-6.200700760E0,5.578267574E-1,1.139012804E1
2.086051668E0,-9.748658180E0,-6.093023777E0,2.536391914E-1,1.149893943E1
2.088525939E0,-9.937990189E0,-5.985346794E0,1.052841991E-1,1.160168565E1
2.090999897E0,-9.969097137E0,-5.762515068E0,1.268195957E-1,1.151544879E1
2.093473335E0,-9.928419113E0,-5.630909920E0,1.363908947E-1,1.141486991E1
2.095947137E0,-1.001216793E1,-5.427519798E0,3.855435550E-1,1.139517976E1
2.098421303E0,-1.004088211E1,-4.869693279E0,9.409775138E-1,1.119904750E1
2.100895418E0,-9.272486687E0,-3.210569859E0,1.831406593E0,9.982024759E0
2.103369480E0,-9.054440498E0,-2.506481647E0,2.023131609E0,9.610328012E0
2.105843595E0,-9.698409081E0,-2.839383125E0,2.152343988E0,1.033217401E1
2.108317970E0,-1.045753193E1,-3.251247883E0,2.336591244E0,1.119777860E1
2.110791928E0,-1.106560802E1,-3.655933857E0,2.264806747E0,1.187193678E1
2.113266199E0,-1.152532959E1,-4.062713623E0,1.984846354E0,1.238056861E1
2.115740626E0,-1.191535950E1,-4.498506546E0,1.460519075E0,1.281972968E1
2.118214637E0,-1.224347496E1,-5.010869503E0,9.122636318E-1,1.326060772E1
2.120688543E0,-1.231765270E1,-5.504090309E0,4.046861231E-1,1.349753122E1
2.123162866E0,-1.245165062E1,-5.939883232E0,1.100698411E-1,1.379630136E1
2.125637553E0,-1.247318649E1,-6.171987057E0,-1.674975827E-2,1.391668373E1
2.128112032E0,-1.260239887E1,-6.289235115E0,-4.785645287E-3,1.408456455E1
2.130586616E0,-1.260239887E1,-6.313163280E0,2.826521695E-1,1.409809846E1
2.133061147E0,-1.248515034E1,-6.207879066E0,6.391827464E-1,1.395798324E1
2.135535626E0,-1.233200932E1,-6.030810356E0,9.266205430E-1,1.375891540E1
2.138009949E0,-1.220518970E1,-5.843871117E0,1.237687469E0,1.358857445E1
2.140484220E0,-1.198953724E1,-5.695516109E0,1.704586983E0,1.338258285E1
2.142958335E0,-1.165214920E1,-5.501697540E0,1.922333837E0,1.302830089E1
2.145432241E0,-1.120917797E1,-5.309972763E0,1.994417667E0,1.256261053E1
2.147906147E0,-1.062502956E1,-5.152046204E0,2.121237278E0,1.199726973E1
2.150379949E0,-1.002891827E1,-5.015655518E0,2.219342947E0,1.143072548E1
2.152853751E0,-9.380164146E0,-4.934299469E0,2.343769789E0,1.085486285E1
2.155327710E0,-8.702695847E0,-4.809872627E0,2.722134829E0,1.030930685E1
2.157801876E0,-7.974679470E0,-4.510470867E0,3.138785124E0,9.684618327E0
2.160276303E0,-7.115357399E0,-4.112963200E0,3.323032379E0,8.864949035E0
2.162750939E0,-6.439982891E0,-3.787539244E0,3.165106058E0,8.113983579E0
2.165225730E0,-6.049952984E0,-3.524029493E0,2.772384167E0,7.530393678E0
2.167700210E0,-5.604588985E0,-3.301496983E0,2.221735716E0,6.873675117E0
2.170174116E0,-5.061119080E0,-3.107678413E0,1.460519075E0,6.116020555E0
2.172648022E0,-4.048357010E0,-3.073879719E0,1.232901812E0,5.230485435E0
2.175122032E0,-2.961417198E0,-3.217748165E0,1.860120535E0,4.752256672E0
2.177596043E0,-2.786741018E0,-3.133999348E0,2.396411896E0,4.830182956E0
2.180070001E0,-3.291925669E0,-3.018844843E0,2.638386011E0,5.187608268E0
2.182543803E0,-3.667897940E0,-3.014059305E0,2.939881802E0,5.583989058E0
2.185017970E0,-3.718147278E0,-3.030808926E0,3.270390272E0,5.805676055E0
2.187492710E0,-3.497708559E0,-2.903989315E0,3.492922783E0,5.733029624E0
2.189967397E0,-3.191427231E0,-2.705385208E0,3.483351469E0,5.444084345E0
2.192441928E0,-3.011666298E0,-2.492124796E0,3.287140131E0,5.107456327E0
2.194915939E0,-2.970988512E0,-2.372483730E0,3.011666298E0,4.850318101E0
2.197390366E0,-2.918346405E0,-2.293520451E0,2.798705101E0,4.648626898E0
2.199865262E0,-2.947060108E0,-2.312663078E0,2.588136673E0,4.553243375E0
2.202339793E0,-3.296711445E0,-2.566601276E0,2.410768747E0,4.823645345E0
2.204814168E0,-3.931108475E0,-2.956631422E0,2.236092806E0,5.403276251E0
2.207288595E0,-4.584648132E0,-3.440280676E0,2.025524378E0,6.079249841E0
2.209763387E0,-5.147260666E0,-3.916751623E0,1.702194214E0,6.688250951E0
2.212237970E0,-5.618945599E0,-4.333401680E0,1.352542996E0,7.223592757E0
2.214712345E0,-5.999703884E0,-4.721039295E0,9.720842242E-1,7.696077343E0
2.217187137E0,-6.308377743E0,-5.087440014E0,5.721837282E-1,8.124350427E0
2.219661616E0,-6.602993965E0,-5.401198864E0,1.220339537E-1,8.531551486E0
2.222136147E0,-6.780063152E0,-5.717051506E0,-2.153540403E-1,8.871319611E0
2.224610730E0,-6.801598549E0,-6.097809315E0,-4.764707983E-1,9.147242518E0
2.227085210E0,-7.050751209E0,-6.267699718E0,-5.697908998E-1,9.451021852E0
2.229559845E0,-7.368996620E0,-6.023632050E0,-4.118646085E-1,9.526588409E0
2.232034532E0,-7.682755470E0,-5.427519798E0,-2.153540403E-2,9.406549131E0
2.234509324E0,-7.945965767E0,-4.610969067E0,4.908277392E-1,9.200017368E0
2.236983803E0,-8.149654388E0,-3.701397419E0,9.840483069E-1,9.004752111E0
2.239458074E0,-8.240582466E0,-2.894418001E0,1.395613790E0,8.844919038E0
2.241932605E0,-8.235795975E0,-2.250449657E0,1.539482236E0,8.675417255E0
2.244407345E0,-8.137690544E0,-1.829013824E0,1.438983679E0,8.463921845E0
2.246881772E0,-7.981858253E0,-1.613659739E0,1.115653515E0,8.219406408E0
2.249356095E0,-7.914859295E0,-1.608874083E0,7.827520967E-1,8.114565565E0
2.251830574E0,-7.941180229E0,-1.762014747E0,4.525425732E-1,8.146891075E0
2.254305105E0,-8.020143509E0,-1.987239242E0,3.110669367E-2,8.262734979E0
2.256779637E0,-8.127820015E0,-2.307877541E0,-2.081755698E-1,8.451691784E0
2.259254012E0,-8.235795975E0,-2.489732027E0,-3.305086195E-1,8.610246039E0
2.261728074E0,-8.319544792E0,-2.712563515E0,-4.262215197E-1,8.760964054E0
2.264202137E0,-8.357830048E0,-2.841775894E0,-5.075774789E-1,8.842321428E0
2.266676355E0,-8.302795410E0,-2.980559587E0,-4.310071766E-1,8.832095689E0
2.269150626E0,-8.247760773E0,-3.112463951E0,-5.195416212E-1,8.830793459E0
2.271625053E0,-8.175975800E0,-3.126821041E0,-4.621138871E-1,8.765679628E0
2.274099741E0,-8.027321815E0,-2.975774050E0,-4.190430641E-1,8.571389841E0
2.276574480E0,-8.008178711E0,-2.808276415E0,-2.703889608E-1,8.490609688E0
2.279048699E0,-8.106285095E0,-2.542673111E0,-1.435693651E-1,8.496920428E0
2.281523022E0,-8.231010437E0,-2.264806747E0,1.698904037E-1,8.538603233E0
2.283997553E0,-8.350651741E0,-2.200200319E0,4.645066857E-1,8.648123057E0
2.286471928E0,-8.453543663E0,-2.336591244E0,5.721837282E-1,8.789166816E0
2.288946720E0,-8.513363838E0,-2.616850615E0,6.415755749E-1,8.929551512E0
2.291421407E0,-8.707481384E0,-2.887239695E0,7.037889361E-1,9.200636064E0
2.293895678E0,-8.977870941E0,-3.105285645E0,8.524430394E-1,9.537904629E0
2.296369741E0,-9.255437851E0,-3.337389469E0,1.108475089E0,9.901010822E0
2.298843960E0,-9.425627708E0,-3.569493294E0,1.455733418E0,1.018346208E1
2.301318074E0,-9.451948166E0,-3.710968733E0,1.632802367E0,1.028477791E1
2.303792241E0,-9.368199348E0,-3.797110319E0,1.879263043E0,1.028167474E1
2.306266668E0,-9.305986404E0,-4.132105827E0,1.996810555E0,1.037607507E1
2.308740939E0,-9.214759827E0,-4.191926003E0,2.327019930E0,1.038744743E1
2.311215210E0,-9.066405296E0,-4.208974838E0,3.401995659E0,1.055882326E1
2.313689637E0,-8.611469269E0,-4.951049328E0,2.851347208E0,1.033443145E1
2.316164116E0,-8.221439362E0,-5.731408596E0,3.105285645E0,1.049208790E1
2.318638543E0,-7.809575081E0,-6.423233509E0,3.679862022E0,1.076051933E1
2.321112866E0,-7.471887589E0,-7.084250450E0,4.132105827E0,1.109459360E1
2.323587449E0,-7.328318596E0,-7.649255753E0,4.572684288E0,1.153797247E1
2.326061876E0,-7.306783199E0,-8.039285660E0,4.967798710E0,1.194563597E1
2.328536251E0,-6.957131863E0,-8.096714020E0,5.171188831E0,1.186168856E1
2.331010678E0,-6.567101955E0,-8.149654388E0,5.341378212E0,1.175049003E1
2.333485210E0,-6.535995007E0,-8.257331848E0,5.695516109E0,1.197253790E1
2.335959376E0,-6.502495766E0,-8.412865639E0,5.676373482E0,1.205321432E1
2.338433543E0,-6.552744865E0,-8.554041862E0,5.592624664E0,1.214032735E1
2.340907866E0,-6.626922131E0,-8.729017258E0,5.539982796E0,1.228019742E1
2.343382137E0,-6.930810928E0,-9.013762474E0,5.554339409E0,1.265443560E1
2.345856460E0,-7.115357399E0,-9.214759827E0,5.274080276E0,1.278108103E1
2.348330522E0,-7.646862984E0,-9.384949684E0,4.998905659E0,1.309736049E1
2.350804793E0,-7.910073280E0,-9.454340935E0,4.646861553E0,1.317372932E1
2.353279272E0,-7.871788502E0,-9.370592117E0,4.077070713E0,1.289944016E1
2.355753699E0,-8.079963684E0,-9.233902931E0,3.351746321E0,1.271947247E1
2.358228074E0,-8.353044510E0,-9.236295700E0,2.628814697E0,1.272765405E1
2.360702137E0,-8.700303078E0,-9.267701149E0,1.968096614E0,1.286308526E1
2.363176199E0,-9.068798065E0,-9.243474007E0,1.505982757E0,1.303659826E1
2.365650210E0,-9.087940216E0,-9.011369705E0,1.017547846E0,1.283864654E1
2.368124012E0,-8.958727837E0,-8.717052460E0,4.692923427E-1,1.250863875E1
2.370597866E0,-8.906085968E0,-8.422436714E0,1.196411345E-2,1.225789340E1
2.373071512E0,-8.913264275E0,-8.142476082E0,-2.297109663E-1,1.207472417E1
2.375545157E0,-8.970691681E0,-7.910073280E0,-3.927220106E-1,1.196648650E1
2.378018907E0,-9.023334503E0,-7.792825222E0,-5.171487927E-1,1.193382308E1
2.380492553E0,-9.128618240E0,-7.689933777E0,-6.439684033E-1,1.195330280E1
2.382966303E0,-9.095118523E0,-7.541279793E0,-7.707880139E-1,1.184002517E1
2.385439949E0,-9.042476654E0,-7.337889671E0,-9.984052777E-1,1.168793489E1
2.387913647E0,-9.142974854E0,-7.244569778E0,-1.201795220E0,1.172698138E1
2.390387605E0,-9.334700584E0,-7.244569778E0,-1.120439172E0,1.186911160E1
2.392861512E0,-9.420842171E0,-7.208677292E0,-1.015154958E0,1.190578998E1
2.395335418E0,-9.538089752E0,-7.189534664E0,-8.763712645E-1,1.197633464E1
2.397809376E0,-9.645767212E0,-7.371389389E0,-8.401798606E-1,1.216898142E1
2.400283387E0,-9.923633575E0,-7.773682594E0,-8.979067206E-1,1.263783529E1
2.402757449E0,-1.033519936E1,-8.242975235E0,-8.931210637E-1,1.324993025E1
2.405231407E0,-1.068006516E1,-8.717052460E0,-9.266205430E-1,1.381699754E1
2.407705314E0,-1.046471119E1,-8.664112091E0,-1.003190875E0,1.362290022E1
2.410179324E0,-1.003131104E1,-8.374580383E0,-1.144367456E0,1.311755978E1
2.412653126E0,-9.691230774E0,-8.168797493E0,-1.137188911E0,1.272565932E1
2.415126720E0,-9.327521324E0,-8.001000404E0,-1.017547846E0,1.233102044E1
2.417600730E0,-9.052047729E0,-7.886145115E0,-8.907282352E-1,1.203844881E1
2.420074845E0,-9.013762474E0,-8.101499557E0,-6.104688644E-1,1.213486223E1
2.422548907E0,-8.913264275E0,-8.451150894E0,-2.225325108E-1,1.228485866E1
2.425023282E0,-8.515756607E0,-8.441578865E0,-1.866401732E-1,1.199221409E1
2.427497814E0,-8.032107353E0,-8.164011955E0,-3.257229924E-1,1.145739653E1
2.429972397E0,-7.577471256E0,-7.795217991E0,-3.687937856E-1,1.087747687E1
2.432446772E0,-7.093822002E0,-7.306783199E0,-1.603191197E-1,1.018514082E1
2.434920991E0,-6.825526714E0,-6.806384087E0,1.698904037E-1,9.640723106E0
2.437395262E0,-6.686742783E0,-6.392126560E0,6.152545214E-1,9.270941113E0
2.439869689E0,-6.681957245E0,-6.116951942E0,1.125224829E0,9.128624464E0
2.442344116E0,-6.815955162E0,-5.990132332E0,1.498804331E0,9.197029115E0
2.444818022E0,-7.038786888E0,-5.982954025E0,1.876870275E0,9.426712139E0
2.447292085E0,-7.419245720E0,-6.212665081E0,2.238485575E0,9.932433344E0
2.449766147E0,-8.048856735E0,-6.586244106E0,2.508874655E0,1.069846523E1
2.452240001E0,-8.755337715E0,-6.993024349E0,2.602493763E0,1.150353432E1
2.454714012E0,-9.372985840E0,-7.311568737E0,2.465803623E0,1.214051434E1
2.457188022E0,-9.679266930E0,-7.349853992E0,2.166700840E0,1.234516725E1
2.459661928E0,-9.851848602E0,-7.108178616E0,1.812264085E0,1.228289157E1
2.462135626E0,-1.009591675E1,-6.653243542E0,1.427019596E0,1.217495665E1
2.464609480E0,-1.037109184E1,-6.155237198E0,1.017547846E0,1.210297049E1
2.467083803E0,-1.050060272E1,-5.575874805E0,2.874378264E-1,1.189267244E1
2.469558074E0,-1.076142120E1,-5.120939732E0,-1.363908947E-1,1.191850714E1
2.472032553E0,-1.115653515E1,-4.907978535E0,-1.674975902E-1,1.218952769E1
2.474506980E0,-1.154207897E1,-4.860121727E0,-1.962114573E-1,1.252512951E1
2.476980835E0,-1.191296673E1,-4.927121162E0,-1.842473447E-1,1.289299214E1
2.479454689E0,-1.222194004E1,-5.015655518E0,-1.603191197E-1,1.321205211E1
2.481928960E0,-1.243250847E1,-5.187938690E0,-1.435693540E-2,1.347153224E1
2.484403751E0,-1.256650639E1,-5.537590027E0,2.632104978E-2,1.373254087E1
2.486878491E0,-1.254497051E1,-5.992525101E0,-2.392822690E-2,1.390277723E1
2.489352762E0,-1.234158134E1,-6.504888535E0,-5.264209956E-2,1.395102061E1
2.491826824E0,-1.206132126E1,-7.055536747E0,-4.307080805E-2,1.397347217E1
2.494301095E0,-1.172871971E1,-7.589435101E0,8.614161611E-2,1.397031895E1
2.496775470E0,-1.120439243E1,-7.821538925E0,3.496512175E-1,1.366883817E1
2.499249637E0,-1.040249729E1,-7.529315472E0,9.098708034E-1,1.287363221E1
2.501723647E0,-9.736694336E0,-7.309175968E0,1.484447360E0,1.226502564E1
2.504197970E0,-9.322735786E0,-7.467102051E0,1.845763564E0,1.208626736E1
2.506672189E0,-9.066405296E0,-7.785646915E0,2.106880426E0,1.213486498E1
2.509145939E0,-8.858229637E0,-8.221439362E0,2.171486616E0,1.227907373E1
2.511619480E0,-8.697610855E0,-8.692825317E0,2.070987940E0,1.247006967E1
2.514093335E0,-8.738588333E0,-9.308379173E0,1.840977907E0,1.289953676E1
2.516567449E0,-9.023334503E0,-9.964311600E0,1.604088426E0,1.353813764E1
2.519041460E0,-9.265308380E0,-1.049103165E1,1.292722464E0,1.405627318E1
2.521515418E0,-9.897313118E0,-1.121157074E1,1.077368379E0,1.499389369E1
2.523989376E0,-1.069920731E1,-1.191057396E1,8.955138922E-1,1.603548422E1
2.526463178E0,-1.133121204E1,-1.225783253E1,6.918248534E-1,1.670716751E1
2.528936720E0,-1.194168091E1,-1.250429249E1,5.291129351E-1,1.729858474E1
2.531410574E0,-1.232483101E1,-1.254018497E1,4.070789516E-1,1.758759255E1
2.533884428E0,-1.221476173E1,-1.222194004E1,2.153540403E-1,1.728070022E1
2.536358022E0,-1.175743294E1,-1.163300610E1,2.392822644E-3,1.653977224E1
2.538831824E0,-1.092891788E1,-1.074945641E1,-1.627119333E-1,1.533031423E1
2.541305574E0,-1.003370380E1,-9.612267494E0,-4.067798331E-2,1.389505499E1
2.543779220E0,-9.396913528E0,-8.439186096E0,3.592225015E-1,1.263530319E1
2.546253178E0,-8.659325600E0,-7.194320202E0,8.066803217E-1,1.128684616E1
2.548727137E0,-8.067999840E0,-6.090631008E0,1.316650629E0,1.019421289E1
2.551201095E0,-7.639684677E0,-5.307579517E0,1.632802367E0,9.444640060E0
2.553675314E0,-7.254140854E0,-4.781158924E0,1.570588946E0,8.828861185E0
2.556149324E0,-6.837490559E0,-4.436293125E0,1.268794179E0,8.248746117E0
2.558623178E0,-6.641279221E0,-4.321437836E0,1.072582722E0,7.995739387E0
2.561097241E0,-6.643671989E0,-4.333401680E0,8.691928387E-1,7.979488944E0
2.563571303E0,-6.890132904E0,-4.476971149E0,8.620143533E-1,8.261977418E0
2.566045053E0,-7.136892796E0,-4.692325115E0,8.739784956E-1,8.585860014E0
2.568518803E0,-7.304390430E0,-4.879264355E0,9.888339639E-1,8.839634201E0
2.570992762E0,-7.395317554E0,-5.030012131E0,1.048654556E0,9.005077465E0
2.573466980E0,-7.340282440E0,-5.051547527E0,1.063011408E0,8.973732333E0
2.575941303E0,-7.275676250E0,-4.996512890E0,1.010369420E0,8.883774666E0
2.578415574E0,-7.220641613E0,-4.941477776E0,1.149153113E0,8.824761798E0
2.580889689E0,-7.577471256E0,-4.958227634E0,1.292722464E0,9.147306887E0
2.583363439E0,-7.728219032E0,-4.951049328E0,1.153938770E0,9.250396399E0
2.585837189E0,-7.931608677E0,-4.958227634E0,9.864411354E-1,9.405716538E0
2.588311251E0,-8.113463402E0,-4.963013172E0,6.726822853E-1,9.534793630E0
2.590785053E0,-8.300402641E0,-4.984548569E0,3.376871049E-1,9.687953397E0
2.593258855E0,-8.324331284E0,-4.977370262E0,-5.264209956E-2,9.699045171E0
2.595733022E0,-8.424829483E0,-4.996512890E0,-2.850449979E-1,9.799190963E0
2.598207032E0,-8.491828918E0,-5.013262749E0,-3.855435550E-1,9.868769204E0
2.600680887E0,-8.391329765E0,-4.965405941E0,-3.305086195E-1,9.755967781E0
2.603155001E0,-8.321938515E0,-4.910371304E0,-1.435693540E-2,9.662640069E0
2.605629168E0,-8.281260490E0,-4.874478817E0,4.812564552E-1,9.621404618E0
2.608103178E0,-8.274081230E0,-4.819443703E0,9.529415965E-1,9.622658442E0
2.610577293E0,-8.180761337E0,-4.864907742E0,1.651944876E0,9.660284947E0
2.613051460E0,-7.500601768E0,-4.630111694E0,1.582553029E0,8.955525405E0
2.615525418E0,-6.284449577E0,-4.127319813E0,2.321037948E-1,7.522163751E0
2.617999220E0,-5.367699623E0,-3.787539244E0,-4.980062246E-1,6.588297425E0
2.620473282E0,-4.663611412E0,-3.725325823E0,-1.019940615E0,6.055378002E0
2.622947397E0,-4.247260094E0,-3.900001764E0,-1.244866014E0,5.899061235E0
2.625421772E0,-4.057928085E0,-4.153641224E0,-1.503589988E0,5.998357993E0
2.627895939E0,-3.866502285E0,-4.381258488E0,-1.740479350E0,6.097092276E0
2.630370105E0,-3.622135162E0,-4.438685894E0,-1.939083695E0,6.048292418E0
2.632844741E0,-3.272783279E0,-4.292723656E0,-1.939083695E0,5.735732940E0
2.635318803E0,-3.155534744E0,-4.081856251E0,-1.666301847E0,5.421762796E0
2.637792449E0,-3.150749207E0,-3.751646757E0,-1.247258782E0,5.055465203E0
2.640266407E0,-3.291925669E0,-3.401995659E0,-7.851449251E-1,4.798624972E0
2.642740678E0,-3.464209080E0,-3.114856958E0,-5.243272781E-1,4.688069700E0
2.645214897E0,-3.651148319E0,-2.937488794E0,-5.195416212E-1,4.714832761E0
2.647688803E0,-3.713361740E0,-2.705385208E0,-6.104688644E-1,4.634742363E0
2.650162710E0,-4.014857292E0,-2.499303341E0,-5.745765567E-1,4.764004039E0
2.652636876E0,-4.235296249E0,-2.461018085E0,-7.420741320E-1,4.954292922E0
2.655111251E0,-4.160819530E0,-2.367697954E0,-1.000798106E0,4.890808687E0
2.657585157E0,-3.923929930E0,-2.190629244E0,-1.156331539E0,4.640386321E0
2.660058803E0,-3.911965847E0,-2.252842426E0,-1.333400369E0,4.707093831E0
2.662532866E0,-3.959822416E0,-2.590529680E0,-1.539482236E0,4.976046940E0
2.665007032E0,-4.151247978E0,-3.081058264E0,-1.606481314E0,5.413553548E0
2.667480835E0,-4.136891365E0,-3.509672642E0,-1.647159338E0,5.669638975E0
2.669954637E0,-4.165605068E0,-3.911965847E0,-1.604088426E0,5.935388955E0
2.672428595E0,-4.357329845E0,-4.295116425E0,-1.477268934E0,6.294177626E0
2.674902293E0,-4.850550652E0,-4.802694321E0,-1.359721422E0,6.960068729E0
2.677375887E0,-5.487340450E0,-5.269294739E0,-1.285543919E0,7.715503576E0
2.679849428E0,-6.301199436E0,-5.683551788E0,-1.213759303E0,8.572110995E0
2.682323022E0,-6.985845566E0,-6.033203125E0,-1.146760225E0,9.301431999E0
2.684796616E0,-7.491030216E0,-6.160022736E0,-1.096511006E0,9.760315066E0
2.687270366E0,-7.742575645E0,-6.040381432E0,-1.036690354E0,9.874634796E0
2.689744272E0,-7.833503246E0,-5.894419670E0,-1.086939692E0,9.863538627E0
2.692218230E0,-7.407281399E0,-5.824728489E0,-1.410269856E0,9.528071198E0
2.694692501E0,-7.022037029E0,-5.662016392E0,-1.628016710E0,9.166126339E0
2.697166668E0,-6.741777897E0,-5.611767292E0,-1.896012783E0,8.974317012E0
2.699640418E0,-6.753741741E0,-5.499304771E0,-2.066202402E0,8.951233035E0
2.702114064E0,-6.945167542E0,-5.221437931E0,-2.094916344E0,8.937977441E0
2.704587970E0,-7.299604416E0,-4.848157883E0,-2.059023857E0,9.001579791E0
2.707062189E0,-7.630113125E0,-4.419543266E0,-1.714158297E0,8.982723843E0
2.709536512E0,-8.058428764E0,-3.947858334E0,-1.115653515E0,9.042595995E0
2.712010626E0,-8.558827400E0,-3.552743435E0,-4.142574072E-1,9.276158773E0
2.714484793E0,-8.877371788E0,-3.162713289E0,4.860421121E-1,9.436457076E0
2.716958699E0,-9.066405296E0,-2.899203777E0,1.378864050E0,9.618022334E0
2.719432397E0,-9.265308380E0,-2.791526794E0,2.193022013E0,9.922091855E0
2.721906303E0,-9.420842171E0,-2.829811811E0,2.899203777E0,1.025502241E1
2.724380470E0,-9.569196701E0,-2.980559587E0,3.421138287E0,1.059044136E1
2.726854845E0,-9.605089188E0,-3.236890793E0,3.687040567E0,1.078561396E1
2.729329012E0,-9.528518677E0,-3.495315790E0,3.722932816E0,1.081064889E1
2.731802866E0,-9.344271660E0,-3.689433336E0,3.651148319E0,1.068916345E1
2.734276720E0,-8.999405861E0,-3.794717550E0,3.440280676E0,1.035493690E1
2.736750678E0,-8.530113220E0,-3.761218071E0,3.040380239E0,9.805789358E0
2.739224428E0,-8.127820015E0,-3.766003847E0,2.355733871E0,9.262490229E0
2.741698022E0,-7.749754429E0,-3.773182154E0,1.611266971E0,8.768795728E0
2.744171772E0,-7.569993496E0,-3.967000723E0,7.061817646E-1,8.575580969E0
2.746645730E0,-7.610970497E0,-3.952643871E0,5.264209956E-2,8.576306703E0
2.749119689E0,-7.524529934E0,-4.031607151E0,-6.559324861E-1,8.561696933E0
2.751593647E0,-7.519744396E0,-4.201497555E0,-1.295115232E0,8.710709555E0
2.754067710E0,-7.701898098E0,-4.237689018E0,-1.678265929E0,8.949515018E0
2.756541980E0,-7.752147198E0,-4.287938118E0,-1.992024899E0,9.080218206E0
2.759016251E0,-7.548458099E0,-4.182354927E0,-2.094916344E0,8.880314572E0
2.761490418E0,-7.342675209E0,-3.990929127E0,-2.140379906E0,8.626912580E0
2.763964064E0,-7.108178616E0,-3.782753468E0,-2.279163599E0,8.368393737E0
2.766437605E0,-6.847062111E0,-3.569493294E0,-2.489732027E0,8.113094816E0
2.768911199E0,-6.789634228E0,-3.366103172E0,-2.638386011E0,8.024391831E0
2.771384949E0,-6.602993965E0,-3.330210924E0,-2.734098911E0,7.884486728E0
2.773858907E0,-6.289235115E0,-3.184248686E0,-2.698206663E0,7.548128061E0
2.776332814E0,-6.047560215E0,-3.126821041E0,-2.624029160E0,7.296267772E0
2.778806980E0,-5.911169052E0,-2.999702215E0,-2.346162558E0,7.031686262E0
2.781281199E0,-5.877370834E0,-3.105285645E0,-1.994417667E0,6.940028004E0
2.783755210E0,-6.152844429E0,-3.378067255E0,-1.405484200E0,7.158506742E0
2.786229324E0,-6.521637917E0,-3.710968733E0,-5.961119533E-1,7.527177393E0
2.788703335E0,-6.897311211E0,-4.022035599E0,-2.632104978E-2,7.984382574E0
2.791177241E0,-7.148856640E0,-4.314259052E0,2.751746178E-1,8.354322444E0
2.793651043E0,-7.108178616E0,-4.649254322E0,1.220339537E-1,8.494507712E0
2.796124949E0,-6.940382004E0,-4.879264355E0,2.775674164E-1,8.488413672E0
2.798598960E0,-6.550352097E0,-5.075475693E0,4.932205677E-1,8.301254883E0
2.801073178E0,-6.057131290E0,-5.298008442E0,6.750751138E-1,8.075485083E0
2.803547189E0,-5.815157413E0,-5.729015827E0,1.106082320E0,8.237784665E0
2.806021251E0,-5.807978630E0,-6.310770512E0,1.726122379E0,8.748596384E0
2.808495626E0,-6.035595894E0,-7.165606499E0,1.984846354E0,9.576740016E0
2.810969741E0,-6.171987057E0,-7.967501163E0,2.008774519E0,1.027665676E1
2.813443543E0,-6.267699718E0,-8.477471352E0,1.869691849E0,1.070734925E1
2.815916928E0,-6.483353138E0,-8.786444664E0,1.611266971E0,1.103773795E1
2.818390314E0,-6.619743824E0,-8.908478737E0,1.125224829E0,1.115563233E1
2.820864220E0,-6.567101955E0,-8.656932831E0,7.253243923E-1,1.089015196E1
2.823338491E0,-6.574280262E0,-8.288438797E0,1.890329868E-1,1.058088428E1
2.825813074E0,-7.038786888E0,-8.152048111E0,-5.291129351E-1,1.078333760E1
2.828287345E0,-7.548458099E0,-7.893323898E0,-9.792626500E-1,1.096552494E1
2.830761512E0,-8.118248940E0,-7.596613884E0,-1.486840129E0,1.121718333E1
2.833235887E0,-8.633005142E0,-7.325925827E0,-2.142772675E0,1.152343012E1
2.835710262E0,-9.233902931E0,-7.031608582E0,-2.753241539E0,1.192848782E1
2.838184532E0,-9.844670296E0,-6.861418724E0,-3.418745279E0,1.247735627E1
2.840658803E0,-1.058195877E1,-7.340282440E0,-4.167997837E0,1.353624038E1
2.843133074E0,-1.125224876E1,-7.627720356E0,-4.548755646E0,1.433479675E1
2.845607345E0,-1.146281719E1,-7.419245720E0,-4.675575256E0,1.443268475E1
2.848081720E0,-1.123071289E1,-6.904489517E0,-4.524827480E0,1.393825496E1
2.850556407E0,-1.091456127E1,-6.408876419E0,-4.319045067E0,1.337368666E1
2.853030678E0,-1.080449200E1,-5.999703884E0,-4.012464523E0,1.299358940E1
2.855504428E0,-1.076859951E1,-5.650052547E0,-3.622135162E0,1.268880185E1
2.857978647E0,-1.073031425E1,-5.338985443E0,-3.236890793E0,1.241458302E1
2.860453178E0,-1.073270702E1,-4.864907742E0,-2.429911375E0,1.203174122E1
2.862927918E0,-1.086191940E1,-4.737788677E0,-1.812264085E0,1.198800383E1
2.865402397E0,-1.082841969E1,-4.646861553E0,-1.208973646E0,1.184523585E1
2.867876668E0,-1.093370438E1,-4.627718925E0,-8.138588071E-1,1.190058990E1
2.870350991E0,-1.086909771E1,-4.651647091E0,-4.238287210E-1,1.183024668E1
2.872825366E0,-1.070877838E1,-5.106582642E0,-4.501497746E-1,1.187256314E1
2.875299793E0,-1.051496029E1,-5.429912567E0,-4.980062246E-1,1.184467604E1
2.877774064E0,-1.009830952E1,-5.578267574E0,-4.932205677E-1,1.154712911E1
2.880248335E0,-9.835099220E0,-5.784050465E0,-6.463612318E-1,1.142813192E1
2.882722710E0,-9.202795982E0,-5.621338367E0,-3.975076675E-1,1.079114967E1
2.885197553E0,-8.601898193E0,-5.496912003E0,-4.214358926E-1,1.021696150E1
2.887672032E0,-8.475078583E0,-5.664409637E0,-4.884349108E-1,1.020544277E1
2.890146355E0,-8.585148811E0,-5.894419670E0,-3.329014480E-1,1.041920279E1
2.892620991E0,-8.266902924E0,-5.733801365E0,-1.292124242E-1,1.006155345E1
2.895095522E0,-7.972286701E0,-5.518447399E0,-3.041875660E-1,9.700677658E0
2.897569949E0,-7.721040249E0,-5.116153717E0,-2.584248483E-1,9.265866111E0
2.900044272E0,-7.630113125E0,-4.615755081E0,-4.785645287E-3,8.917614264E0
2.902518595E0,-7.670791149E0,-4.189533234E0,2.608176768E-1,8.744212453E0
2.904992710E0,-7.857431412E0,-3.739682674E0,7.205387354E-1,8.731759901E0
2.907466928E0,-8.113463402E0,-3.246462107E0,1.252044439E0,8.828103979E0
2.909941303E0,-8.154440880E0,-2.695813894E0,1.852941990E0,8.786109072E0
2.912415418E0,-8.671290398E0,-2.451446772E0,2.193022013E0,9.274169180E0
2.914889168E0,-9.152546883E0,-2.362912416E0,2.331805706E0,9.736004693E0
2.917362866E0,-9.401699066E0,-2.367697954E0,2.118844509E0,9.924083887E0
2.919836876E0,-9.870991707E0,-2.628814697E0,1.788335800E0,1.037040447E1
2.922310678E0,-1.015813065E1,-2.853740215E0,1.438983679E0,1.064904341E1
2.924784376E0,-1.019880867E1,-3.069094181E0,9.002995491E-1,1.068857225E1
2.927258491E0,-1.008395290E1,-3.186641455E0,3.687937856E-1,1.058190903E1
2.929732762E0,-9.971489906E0,-3.392424345E0,-1.698904037E-1,1.053413578E1
2.932206928E0,-9.815657616E0,-3.794717550E0,-7.109674215E-1,1.054762961E1
2.934681043E0,-9.380164146E0,-3.959822416E0,-1.017547846E0,1.023245213E1
2.937155053E0,-8.977870941E0,-3.983750582E0,-1.084546804E0,9.881734519E0
2.939628907E0,-8.922835350E0,-4.285545349E0,-1.182652593E0,9.969029881E0
2.942103074E0,-8.764909744E0,-4.548755646E0,-1.185045362E0,9.945810840E0
2.944577605E0,-8.594719887E0,-4.872086048E0,-1.156331539E0,9.947036494E0
2.947052137E0,-8.884550095E0,-5.386841774E0,-1.122832060E0,1.045055245E1
2.949526720E0,-9.435198784E0,-5.796014786E0,-8.042874932E-1,1.110241604E1
2.952001251E0,-9.791728973E0,-6.219843388E0,-2.392822653E-1,1.160265763E1
2.954475626E0,-9.669695854E0,-6.866204739E0,1.794617027E-1,1.186085966E1
2.956949949E0,-9.243474007E0,-7.117750168E0,2.826521695E-1,1.166979312E1
2.959424480E0,-8.879764557E0,-7.359425068E0,8.135596663E-2,1.153334187E1
2.961899012E0,-8.767302513E0,-7.723433495E0,1.698904037E-1,1.168528481E1
2.964373387E0,-8.676075935E0,-8.079963684E0,8.234301209E-1,1.188436553E1
2.966848074E0,-8.293224335E0,-8.640183449E0,1.553839207E0,1.207662023E1
2.969322501E0,-7.816753387E0,-8.989834785E0,1.943869352E0,1.207051743E1
2.971796876E0,-7.022037029E0,-9.178867340E0,1.608874083E0,1.166829403E1
2.974271251E0,-6.502495766E0,-9.135796547E0,1.280758262E0,1.128652167E1
2.976745678E0,-6.140880108E0,-9.221938133E0,1.494018674E0,1.117974254E1
2.979220522E0,-5.750551224E0,-9.310771942E0,1.982453585E0,1.112157524E1
2.981695105E0,-5.394020557E0,-9.291629791E0,2.564208508E0,1.104558768E1
2.984169532E0,-4.931906700E0,-9.243474007E0,2.583351135E0,1.079070056E1
2.986643803E0,-4.632504463E0,-9.102297783E0,2.360519648E0,1.048255577E1
2.989118022E0,-4.407579422E0,-9.061619759E0,2.279163599E0,1.033122915E1
2.991592397E0,-4.074677944E0,-9.150154114E0,2.465803623E0,1.031544997E1
2.994066772E0,-4.096213341E0,-9.313164711E0,2.834597588E0,1.056167336E1
2.996541095E0,-4.431507587E0,-9.564411163E0,3.066701412E0,1.097820012E1
2.999015574E0,-4.697110653E0,-9.645767212E0,2.576172590E0,1.103360045E1
3.001490210E0,-4.793122768E0,-9.540482521E0,1.931905150E0,1.085021152E1
3.003964897E0,-4.934299469E0,-9.530911446E0,1.687837243E0,1.086436279E1
3.006439585E0,-5.106582642E0,-9.545269012E0,1.764407635E0,1.096824877E1
3.008914012E0,-5.487340450E0,-9.724730492E0,1.754836321E0,1.130312960E1
3.011388335E0,-5.788836002E0,-1.001456070E1,1.666301847E0,1.168668516E1
3.013863074E0,-6.030810356E0,-1.029212856E1,1.383649707E0,1.200887465E1
3.016338126E0,-6.248557091E0,-1.049820995E1,9.481559992E-1,1.225381074E1
3.018812657E0,-6.212665081E0,-1.056999493E1,3.448655605E-1,1.226543649E1
3.021287032E0,-6.088238239E0,-1.054606628E1,-1.986042857E-1,1.217889989E1
3.023761772E0,-6.009274960E0,-1.038814068E1,-6.032904387E-1,1.201618956E1
3.026236460E0,-5.954239845E0,-1.022034359E1,-8.668000102E-1,1.186000580E1
3.028710991E0,-5.980561256E0,-1.009352398E1,-9.960124493E-1,1.177448003E1
3.031185157E0,-6.035595894E0,-9.945169449E0,-1.007976532E0,1.167693581E1
3.033659585E0,-6.112166405E0,-9.724730492E0,-1.041476011E0,1.153315367E1
3.036134324E0,-6.310770512E0,-9.506983757E0,-1.149153113E0,1.146861445E1
3.038609064E0,-6.490531445E0,-9.159725189E0,-1.342971683E0,1.130624327E1
3.041083803E0,-6.557530403E0,-8.755337715E0,-1.575374603E0,1.105164914E1
3.043558126E0,-6.653243542E0,-8.439186096E0,-1.764407635E0,1.089030054E1
3.046032397E0,-6.873383045E0,-8.221439362E0,-1.802692771E0,1.086669963E1
3.048506980E0,-7.081857681E0,-8.008178711E0,-1.661516190E0,1.081870004E1
3.050981772E0,-7.246962547E0,-7.831110477E0,-1.395613790E0,1.076069214E1
3.053456512E0,-7.337889671E0,-7.649255753E0,-1.115653515E0,1.065834983E1
3.055930782E0,-7.364210606E0,-7.366603374E0,-8.377870321E-1,1.044989618E1
3.058405105E0,-7.416852951E0,-7.045965195E0,-5.171487927E-1,1.024318193E1
3.060879689E0,-7.479066372E0,-6.973881721E0,-3.400799036E-1,1.023167212E1
3.063354585E0,-7.562815189E0,-7.036394119E0,-2.512463629E-1,1.033296378E1
3.065829585E0,-7.596613884E0,-7.079464912E0,-2.392822653E-1,1.038675223E1
3.068304012E0,-7.555636406E0,-7.081857681E0,-4.142574072E-1,1.036397409E1
3.070778178E0,-7.522137165E0,-7.091429234E0,-7.253243923E-1,1.036325294E1
3.073252553E0,-7.514958382E0,-7.069893837E0,-8.452646136E-1,1.035241376E1
3.075727032E0,-7.498209000E0,-6.952346325E0,-8.907282352E-1,1.026409540E1
3.078201303E0,-7.352246761E0,-6.732206345E0,-7.827520967E-1,9.999541767E0
3.080675418E0,-7.057929516E0,-6.420840263E0,-5.195416212E-1,9.555704173E0
3.083149689E0,-6.765706062E0,-6.126523495E0,-2.249253243E-1,9.130151152E0
3.085623907E0,-6.519245148E0,-5.882156372E0,7.657032460E-2,8.781012692E0
3.088097970E0,-6.303592205E0,-5.721837044E0,3.711866140E-1,8.521295286E0
3.090572241E0,-6.047560215E0,-5.606981754E0,6.224330068E-1,8.270347743E0
3.093046772E0,-5.798407555E0,-5.463412285E0,7.923234105E-1,8.006133920E0
3.095521355E0,-5.602196217E0,-5.324329376E0,9.050851464E-1,7.781533581E0
3.097995626E0,-5.487340450E0,-5.293222904E0,1.017547846E0,7.691847473E0
3.100469585E0,-5.394020557E0,-5.317151070E0,1.118046403E0,7.656211924E0
3.102943543E0,-5.348556995E0,-5.348556995E0,1.199402332E0,7.658504411E0
3.105417918E0,-5.408377171E0,-5.456233978E0,1.240080357E0,7.781955547E0
3.107892189E0,-5.446662426E0,-5.647659779E0,1.230509043E0,7.942061764E0
3.110366460E0,-5.451447964E0,-5.755336761E0,1.192223907E0,8.016457072E0
3.112840835E0,-5.408377171E0,-5.815157413E0,1.185045362E0,8.029379296E0
3.115315157E0,-5.396413326E0,-5.963811398E0,1.206580877E0,8.132906036E0
3.117789689E0,-5.451447964E0,-6.169594288E0,1.316650629E0,8.337610416E0
3.120264480E0,-5.494519234E0,-6.305984974E0,1.395613790E0,8.479559302E0
3.122739376E0,-5.568696499E0,-6.531209469E0,1.424626827E0,8.700381567E0
3.125214220E0,-5.623731613E0,-6.782455921E0,1.458126307E0,8.930520584E0
3.127689168E0,-5.719444275E0,-7.124928474E0,1.474876046E0,9.254831599E0
3.130164012E0,-5.839085579E0,-7.577471256E0,1.517946839E0,9.685925544E0
3.132638387E0,-5.836692810E0,-7.890930653E0,1.553839207E0,9.937212175E0
3.135112657E0,-5.736194134E0,-8.082356453E0,1.577767372E0,1.003582378E1
3.137587293E0,-5.640480995E0,-8.254939079E0,1.601695657E0,1.012543698E1
3.140062032E0,-5.645267010E0,-8.515756607E0,1.639980793E0,1.034778658E1
3.142536668E0,-5.702694416E0,-8.836693764E0,1.711765528E0,1.065542216E1
3.145011199E0,-5.647659779E0,-9.013762474E0,1.675873160E0,1.076812545E1
3.147485887E0,-5.614160061E0,-9.257830620E0,1.625623941E0,1.094846447E1
3.149960522E0,-5.635695457E0,-9.576375008E0,1.637588024E0,1.123163907E1
3.152434897E0,-5.609374523E0,-9.832706451E0,1.647159338E0,1.143942012E1
3.154909376E0,-5.413163185E0,-9.839884758E0,1.623231053E0,1.134727045E1
3.157383855E0,-5.195116997E0,-9.748658180E0,1.604088426E0,1.116237773E1
3.159857970E0,-5.108975410E0,-9.705587387E0,1.637588024E0,1.108971374E1
3.162331980E0,-5.178367138E0,-9.719944954E0,1.644766450E0,1.113544219E1
3.164806251E0,-5.396413326E0,-9.856635094E0,1.570588946E0,1.134642154E1
3.167280730E0,-5.566303730E0,-9.868598938E0,1.448554993E0,1.142240315E1
3.169755105E0,-5.609374523E0,-9.772586823E0,1.331007600E0,1.134637021E1
3.172229376E0,-5.676373482E0,-9.712766647E0,1.240080357E0,1.131798795E1
3.174703543E0,-5.812764645E0,-9.629017830E0,1.132403374E0,1.130435998E1
3.177177501E0,-5.994917870E0,-9.562018394E0,9.840483069E-1,1.132870633E1
3.179651772E0,-6.174379826E0,-9.504590988E0,8.401798606E-1,1.136512729E1
3.182126251E0,-6.294020653E0,-9.317950249E0,7.157530785E-1,1.126726210E1
3.184600626E0,-6.317949295E0,-9.001798630E0,6.511468887E-1,1.101693488E1
3.187075105E0,-6.353841305E0,-8.692825317E0,5.889334679E-1,1.078347597E1
3.189549689E0,-6.480959892E0,-8.537292480E0,5.147559643E-1,1.073094487E1
3.192023907E0,-6.552744865E0,-8.379365921E0,4.166502357E-1,1.064546081E1
3.194498022E0,-6.586244106E0,-8.178368568E0,3.281157911E-1,1.050580715E1
3.196972293E0,-6.669992924E0,-8.051250458E0,2.273181528E-1,1.045768201E1
3.199446407E0,-6.789634228E0,-7.919644833E0,1.220339537E-1,1.043239184E1
3.201920470E0,-6.894918442E0,-7.795217991E0,2.632104978E-2,1.040701766E1
3.204394793E0,-6.978667259E0,-7.646862984E0,-3.589234129E-2,1.035266142E1
3.206869168E0,-6.971488953E0,-7.469494820E0,-4.067798331E-2,1.021746866E1
3.209343543E0,-6.863811970E0,-7.285247803E0,-1.196411345E-2,1.000934031E1
3.211818282E0,-6.710670948E0,-7.108178616E0,5.024927482E-2,9.775573272E0
3.214292970E0,-6.519245148E0,-6.969096184E0,7.417750359E-2,9.543288805E0
3.216767137E0,-6.327520370E0,-6.909275532E0,1.459621787E-1,9.370000393E0
3.219241095E0,-6.124130249E0,-6.866204739E0,2.033899277E-1,9.202777096E0
3.221715366E0,-5.882156372E0,-6.808776855E0,2.512463629E-1,9.001240503E0
3.224190001E0,-5.755336761E0,-6.808776855E0,2.850449979E-1,8.919898775E0
3.226664480E0,-5.676373482E0,-6.875775814E0,2.826521695E-1,8.920616638E0
3.229138855E0,-5.587839127E0,-6.926024914E0,3.113660514E-1,8.904533454E0
3.231613439E0,-5.523232937E0,-7.004988194E0,3.520440459E-1,8.927479861E0
3.234088230E0,-5.475376606E0,-7.065107822E0,3.281157911E-1,8.944448417E0
3.236563022E0,-5.413163185E0,-7.158428192E0,3.161516786E-1,8.980277375E0
3.239037970E0,-5.350949764E0,-7.278069019E0,3.400799036E-1,9.039834422E0
3.241512605E0,-5.286044121E0,-7.380960464E0,3.376871049E-1,9.084870522E0
3.243986928E0,-5.166403294E0,-7.510172844E0,3.735794425E-1,9.123265903E0
3.246461043E0,-5.049154758E0,-7.594220638E0,3.520440459E-1,9.126340224E0
3.248935418E0,-4.948656559E0,-7.639684677E0,3.640081584E-1,9.109691852E0
3.251409949E0,-4.888835907E0,-7.761718273E0,4.262215197E-1,9.182954419E0
3.253884324E0,-4.829015255E0,-7.881359577E0,4.716851711E-1,9.255144732E0
3.256358855E0,-4.759324074E0,-7.922037601E0,5.075774789E-1,9.255672871E0
3.258833387E0,-4.675575256E0,-7.878966808E0,5.171487927E-1,9.176413505E0
3.261307866E0,-4.677968502E0,-7.888537884E0,5.602195859E-1,9.188376638E0
3.263782605E0,-4.744967461E0,-7.924430370E0,6.224330068E-1,9.257361165E0
3.266257397E0,-4.829015255E0,-7.910073280E0,6.415755749E-1,9.289793693E0
3.268731616E0,-4.977370262E0,-7.938787460E0,6.655037999E-1,9.393692372E0
3.271205678E0,-5.080261707E0,-7.938787460E0,6.918248534E-1,9.450504060E0
3.273680053E0,-5.140082359E0,-7.835896015E0,7.181459069E-1,9.398800273E0
3.276154480E0,-5.204688549E0,-7.709076405E0,7.444669604E-1,9.331284636E0
3.278628491E0,-5.372485161E0,-7.689933777E0,7.755736113E-1,9.412767538E0
3.281102501E0,-5.461019516E0,-7.632505894E0,8.162516356E-1,9.420411196E0
3.283576564E0,-5.518447399E0,-7.522137165E0,8.452646136E-1,9.367512023E0
3.286050939E0,-5.587839127E0,-7.431210041E0,9.002995491E-1,9.341165241E0
3.288525210E0,-5.654838085E0,-7.380960464E0,9.194421172E-1,9.343508172E0
3.290999168E0,-5.606981754E0,-7.258926392E0,9.170492887E-1,9.217984387E0
3.293473282E0,-5.554339409E0,-7.230212688E0,9.242277741E-1,9.164107091E0
3.295947501E0,-5.508875847E0,-7.301997185E0,9.577272534E-1,9.196962405E0
3.298422032E0,-5.410770416E0,-7.337889671E0,8.835497499E-1,9.159788288E0
3.300896720E0,-5.240580559E0,-7.304390430E0,7.971090674E-1,9.025141939E0
3.303370782E0,-5.149653435E0,-7.433602810E0,7.660023570E-1,9.075469180E0
3.305844845E0,-5.030012131E0,-7.560422421E0,8.234301209E-1,9.118061547E0
3.308318907E0,-4.927121162E0,-7.764111042E0,8.835497499E-1,9.237889552E0
3.310792918E0,-4.910371304E0,-8.017750740E0,9.481559992E-1,9.449607032E0
3.313266824E0,-4.939085007E0,-8.305188179E0,1.003190875E0,9.714787868E0
3.315740574E0,-4.953442097E0,-8.676075935E0,1.082154036E0,1.004897704E1
3.318214480E0,-4.922335148E0,-8.982656479E0,1.149153113E0,1.030718456E1
3.320688699E0,-4.857728958E0,-9.243474007E0,1.225723386E0,1.051388321E1
3.323162970E0,-4.891228676E0,-9.511769295E0,1.316650629E0,1.077642993E1
3.325637293E0,-4.965405941E0,-9.753444672E0,1.390828133E0,1.103264891E1
3.328111876E0,-4.996512890E0,-9.882955551E0,1.417448282E0,1.116454706E1
3.330586199E0,-5.003691196E0,-9.952347755E0,1.374078393E0,1.122382479E1
3.333060105E0,-5.020441055E0,-9.949954987E0,1.359721422E0,1.122743403E1
3.335533907E0,-5.087440014E0,-9.969097137E0,1.402792215E0,1.127975042E1
3.338008074E0,-5.216652393E0,-1.003848934E1,1.529910922E0,1.141601322E1
3.340482657E0,-5.219045162E0,-9.957133293E0,1.604088426E0,1.135588110E1
3.342957189E0,-5.197509766E0,-9.779765129E0,1.625623941E0,1.119377358E1
3.345431460E0,-5.223830700E0,-9.633803368E0,1.673480392E0,1.108598715E1
3.347905887E0,-5.307579517E0,-9.514162064E0,1.747657895E0,1.103376582E1
3.350380470E0,-5.391627789E0,-9.349057198E0,1.819442511E0,1.094462844E1
3.352854741E0,-5.417948723E0,-9.121439934E0,1.857727647E0,1.077060754E1
3.355329012E0,-5.410770416E0,-8.846264839E0,1.903191328E0,1.054300599E1
3.357803439E0,-5.317151070E0,-8.487042427E0,1.939083695E0,1.020107986E1
3.360277918E0,-5.192724228E0,-8.084749222E0,1.943869352E0,9.803376099E0
3.362752762E0,-5.097011566E0,-7.742575645E0,1.972882271E0,9.477302833E0
3.365227345E0,-4.998905659E0,-7.486244678E0,1.982453585E0,9.217539769E0
3.367701668E0,-4.903192520E0,-7.268497944E0,1.987239242E0,8.990076699E0
3.370176251E0,-4.869693279E0,-7.175177574E0,1.965703845E0,8.891629629E0
3.372650782E0,-4.927121162E0,-7.225427151E0,1.963011861E0,8.963076259E0
3.375125366E0,-4.958227634E0,-7.347461224E0,1.951047778E0,9.076111234E0
3.377600262E0,-4.934299469E0,-7.438388348E0,1.876870275E0,9.121380076E0
3.380075001E0,-4.874478817E0,-7.491030216E0,1.788335800E0,9.114506151E0
3.382549532E0,-4.795515537E0,-7.512565613E0,1.733300924E0,9.079644456E0
3.385024220E0,-4.711467743E0,-7.464709282E0,1.680658817E0,8.985790283E0
3.387498960E0,-4.613361835E0,-7.328318596E0,1.642373681E0,8.813895403E0
3.389973803E0,-4.508078098E0,-7.227819920E0,1.599302888E0,8.667290157E0
3.392448595E0,-4.457828522E0,-7.141678333E0,1.582553029E0,8.566228962E0
3.394923126E0,-4.431507587E0,-7.086643219E0,1.563410521E0,8.503118491E0
3.397397710E0,-4.393222332E0,-7.014858723E0,1.582553029E0,8.426928233E0
3.399872137E0,-4.287938118E0,-6.863811970E0,1.589731574E0,8.247761790E0
3.402346355E0,-4.110570431E0,-6.646064758E0,1.601695657E0,7.976991602E0
3.404820678E0,-4.024428368E0,-6.485745907E0,1.577767372E0,7.794246181E0
3.407295001E0,-4.057928085E0,-6.413661957E0,1.604088426E0,7.757250784E0
3.409769637E0,-4.036392689E0,-6.303592205E0,1.733300924E0,7.683233220E0
3.412244376E0,-4.115355968E0,-6.341877460E0,1.706979871E0,7.750441584E0
3.414719168E0,-4.316651821E0,-6.619743824E0,1.544267893E0,8.052282569E0
3.417194064E0,-4.414757729E0,-6.854240417E0,1.474876046E0,8.285285563E0
3.419668751E0,-4.407579422E0,-7.043572426E0,1.455733418E0,8.435509983E0
3.422143491E0,-4.498506546E0,-7.378567696E0,1.359721422E0,8.748066342E0
3.424618543E0,-4.622933388E0,-7.766504288E0,1.201795220E0,9.117807506E0
3.427093543E0,-4.646861553E0,-8.065607071E0,1.024726272E0,9.364689191E0
3.429568387E0,-4.570291042E0,-8.204689980E0,8.452646136E-1,9.429685580E0
3.432042866E0,-4.627718925E0,-8.446364403E0,6.056832075E-1,9.650062499E0
3.434517189E0,-4.687539577E0,-8.738588333E0,3.616153300E-1,9.923039806E0
3.436991512E0,-4.776372910E0,-9.059226990E0,6.221338734E-2,1.024144532E1
3.439465939E0,-4.898406982E0,-9.384949684E0,-1.962114573E-1,1.058820903E1
3.441940210E0,-4.994120121E0,-9.667302132E0,-4.788636267E-1,1.089161497E1
3.444414324E0,-5.039583683E0,-9.813264847E0,-7.636095285E-1,1.105805906E1
3.446888387E0,-5.125725269E0,-9.985847473E0,-1.072582722E0,1.127566597E1
3.449362449E0,-4.730610371E0,-9.473484039E0,-1.192223907E0,1.065584216E1
3.451836407E0,-4.170390606E0,-8.676075935E0,-1.292722464E0,9.712753616E0
3.454310157E0,-4.264009953E0,-8.678468704E0,-1.465304732E0,9.779811751E0
3.456784064E0,-4.508078098E0,-8.896514893E0,-1.575374603E0,1.009715557E1
3.459258126E0,-4.551148891E0,-9.001798630E0,-1.651944876E0,1.022126493E1
3.461732293E0,-4.630111694E0,-9.171689034E0,-1.733300924E0,1.041931601E1
3.464205991E0,-4.711467743E0,-9.375378609E0,-1.790728688E0,1.064435820E1
3.466679324E0,-4.850550652E0,-9.703194618E0,-1.819442511E0,1.099955447E1
3.469153074E0,-4.874478817E0,-9.844670296E0,-1.819442511E0,1.113501001E1
3.471627085E0,-4.872086048E0,-1.002652550E1,-1.747657895E0,1.128373804E1
3.474101355E0,-4.946263313E0,-1.030648518E1,-1.589731574E0,1.154194108E1
3.476575626E0,-4.986941338E0,-1.050299549E1,-1.393221021E0,1.170997707E1
3.479049949E0,-5.022833824E0,-1.056760216E1,-1.237687469E0,1.176583806E1
3.481524428E0,-5.015655518E0,-1.055085278E1,-1.091725349E0,1.173325014E1
3.483998855E0,-5.070690155E0,-1.061785126E1,-8.883354068E-1,1.179999168E1
3.486473387E0,-5.159224510E0,-1.079252720E1,-7.133602500E-1,1.198353553E1
3.488947397E0,-5.300401211E0,-1.102493000E1,-5.817549825E-1,1.224670459E1
3.491420991E0,-5.413163185E0,-1.109910774E1,-5.099703074E-1,1.235931220E1
3.493895210E0,-5.599802971E0,-1.119242764E1,-5.051847100E-1,1.252531202E1
3.496369845E0,-5.817550182E0,-1.124985600E1,-5.745765567E-1,1.267806327E1
3.498844532E0,-6.059524059E0,-1.130967617E1,-5.841478109E-1,1.284398052E1
3.501319116E0,-6.183950901E0,-1.120199966E1,-5.243272781E-1,1.280628613E1
3.503793230E0,-6.181558132E0,-1.098185921E1,-3.999004960E-1,1.260844213E1
3.506267085E0,-6.155237198E0,-1.070638561E1,-1.890329868E-1,1.235108786E1
3.508741355E0,-5.994917870E0,-1.031366348E1,2.153540403E-2,1.192942406E1
3.511215887E0,-5.750551224E0,-9.880562782E0,1.818545163E-1,1.143360972E1
3.513690470E0,-5.451447964E0,-9.449555397E0,2.922234535E-1,1.091319278E1
3.516164845E0,-5.187938690E0,-9.028120041E0,4.190430641E-1,1.042100074E1
3.518639272E0,-4.898406982E0,-8.625826836E0,4.812564552E-1,9.931308440E0
3.521113699E0,-4.613361835E0,-8.266902924E0,4.836492836E-1,9.479383313E0
3.523588074E0,-4.429114819E0,-8.041678429E0,5.147559643E-1,9.195141311E0
3.526062449E0,-4.335794449E0,-7.888537884E0,5.769693851E-1,9.020035317E0
3.528536720E0,-4.167997837E0,-7.778468132E0,6.607181430E-1,8.849481392E0
3.531011095E0,-3.969393730E0,-7.692326546E0,6.822535396E-1,8.682939834E0
3.533485470E0,-3.823431492E0,-7.673183918E0,7.396813035E-1,8.604853761E0
3.535959741E0,-3.641277790E0,-7.701898098E0,7.420741320E-1,8.551538591E0
3.538433907E0,-3.459423304E0,-7.737790108E0,7.444669604E-1,8.508539029E0
3.540908282E0,-3.339782238E0,-7.816753387E0,7.468597889E-1,8.533087276E0
3.543382762E0,-3.246462107E0,-7.953144073E0,7.468597889E-1,8.622633960E0
3.545857189E0,-3.169891834E0,-8.106285095E0,7.516453862E-1,8.736420495E0
3.548331460E0,-3.090928555E0,-8.269295692E0,7.564310431E-1,8.860433313E0
3.550805314E0,-3.133999348E0,-8.475078583E0,8.210372925E-1,9.073202915E0
3.553279012E0,-3.232105255E0,-8.827122688E0,9.170492887E-1,9.444870498E0
3.555752814E0,-3.265604734E0,-9.114261627E0,1.051047325E0,9.738513222E0
3.558227085E0,-3.224926710E0,-9.301200867E0,1.110867858E0,9.906892411E0
3.560701772E0,-3.189034462E0,-9.456734657E0,1.106082320E0,1.004107511E1
3.563176564E0,-3.071486950E0,-9.538089752E0,1.060618639E0,1.007641306E1
3.565651199E0,-2.994916677E0,-9.600303650E0,9.888339639E-1,1.010510508E1
3.568125626E0,-2.963809967E0,-9.664909363E0,9.074779749E-1,1.014978614E1
3.570600157E0,-2.889632463E0,-9.662516594E0,8.787640929E-1,1.012355812E1
3.573074793E0,-2.805883646E0,-9.617053032E0,7.971090674E-1,1.004968034E1
3.575549272E0,-2.746062994E0,-9.506983757E0,6.176473498E-1,9.914892353E0
3.578023751E0,-2.698206663E0,-9.380164146E0,3.735794425E-1,9.767669129E0
3.580498178E0,-2.669492722E0,-9.250652313E0,1.172483116E-1,9.628837249E0
3.582972970E0,-2.679064035E0,-9.080761909E0,-1.387837082E-1,9.468731799E0
3.585447866E0,-2.784348249E0,-8.977870941E0,-4.046861231E-1,9.408428810E0
3.587922241E0,-2.968595505E0,-8.910871506E0,-6.607181430E-1,9.415558333E0
3.590396095E0,-3.210569859E0,-8.918049812E0,-8.620143533E-1,9.517480760E0
3.592869585E0,-3.535993576E0,-8.989834785E0,-1.003190875E0,9.712197072E0
3.595343282E0,-3.911965847E0,-9.119047165E0,-1.089332461E0,9.982341569E0
3.597817137E0,-4.280759811E0,-9.260522842E0,-1.120439172E0,1.026340937E1
3.600290939E0,-4.608576298E0,-9.416056633E0,-1.120439172E0,1.054307744E1
3.602764793E0,-4.831408024E0,-9.576375008E0,-1.096511006E0,1.078201271E1
3.605238699E0,-5.025226593E0,-9.770194054E0,-1.034297585E0,1.103536885E1
3.607713074E0,-5.161617756E0,-9.988240242E0,-9.601200819E-1,1.128401841E1
3.610187657E0,-5.247759342E0,-1.016770172E1,-8.282157183E-1,1.147201280E1
3.612662085E0,-5.211866856E0,-1.024427223E1,-6.822535396E-1,1.151408440E1
3.615136407E0,-5.156831741E0,-1.026819992E1,-5.219344497E-1,1.150222843E1
3.617610678E0,-5.132903576E0,-1.026580715E1,-3.616153300E-1,1.148321650E1
3.620084949E0,-5.101797104E0,-1.022273636E1,-1.770688742E-1,1.142646165E1
3.622559012E0,-5.058726311E0,-1.013659477E1,-4.546362907E-2,1.132887163E1
3.625033230E0,-4.946263313E0,-9.990633011E0,7.896314561E-2,1.114829601E1
3.627507762E0,-4.812265396E0,-9.818050385E0,1.722832322E-1,1.093534147E1
3.629981876E0,-4.615755081E0,-9.573982239E0,2.679961324E-1,1.063194022E1
3.632455939E0,-4.426722050E0,-9.272486687E0,4.094717801E-1,1.028311940E1
3.634930157E0,-4.203890324E0,-8.975478172E0,5.721837282E-1,9.927703485E0
3.637404637E0,-3.950251102E0,-8.649754524E0,7.325028181E-1,9.537258384E0
3.639879116E0,-3.672683716E0,-8.338687897E0,8.907282352E-1,9.155092479E0
3.642353595E0,-3.409173965E0,-8.053643227E0,1.115653515E0,8.816366548E0
3.644828022E0,-3.157927752E0,-7.759325504E0,1.417448282E0,8.496399214E0
3.647301928E0,-2.990130901E0,-7.546065331E0,1.654337764E0,8.283768358E0
3.649775678E0,-2.817847729E0,-7.347461224E0,1.838585138E0,8.081203349E0
3.652249428E0,-2.803490877E0,-7.124928474E0,1.910369754E0,7.891367401E0
3.654723230E0,-2.801098108E0,-7.050751209E0,2.054238319E0,7.859970630E0
3.657197397E0,-2.822633505E0,-7.098607540E0,2.221735716E0,7.955727402E0
3.659671668E0,-2.796312332E0,-7.246962547E0,2.307877541E0,8.103340519E0
3.662146147E0,-2.762812853E0,-7.431210041E0,2.372483730E0,8.275548114E0
3.664620626E0,-2.647957325E0,-7.706683636E0,2.360519648E0,8.483908513E0
3.667094272E0,-2.396411896E0,-8.032107353E0,2.190629244E0,8.663509392E0
3.669567814E0,-2.434697151E0,-8.365009308E0,2.042274237E0,8.948296765E0
3.672041668E0,-2.856132984E0,-8.690432549E0,1.922333837E0,9.347538761E0
3.674515730E0,-3.677469254E0,-8.848658562E0,1.862513304E0,9.761736232E0
3.676990105E0,-4.252045631E0,-8.937192917E0,1.687837243E0,1.004002509E1
3.679464637E0,-4.524827480E0,-9.068798065E0,1.328614831E0,1.022166226E1
3.681939012E0,-4.699503899E0,-9.008976936E0,9.218349457E-1,1.020278305E1
3.684412866E0,-4.038785458E0,-7.941180229E0,3.281157911E-1,8.915256103E0
3.686886407E0,-4.165605068E0,-7.704290867E0,-4.860421121E-1,8.771807127E0
3.689360418E0,-4.706682205E0,-7.914859295E0,-1.335793257E0,9.304955597E0
3.691834741E0,-5.293222904E0,-8.113463402E0,-2.204986095E0,9.935213172E0
3.694308699E0,-5.843871117E0,-8.271688461E0,-3.133999348E0,1.060158533E1
3.696782605E0,-6.274878502E0,-8.348258972E0,-4.050749779E0,1.120161157E1
3.699256824E0,-6.698707104E0,-8.460721970E0,-4.905585289E0,1.185416636E1
3.701730835E0,-7.194320202E0,-8.609076500E0,-5.616552830E0,1.254671698E1
3.704204845E0,-7.656434059E0,-8.774480820E0,-6.152844429E0,1.317080069E1
3.706678803E0,-8.079963684E0,-8.939585686E0,-6.449554443E0,1.366743421E1
3.709152814E0,-8.384151459E0,-9.068798065E0,-6.490531445E0,1.395220744E1
3.711626772E0,-8.551649094E0,-9.133403778E0,-6.284449577E0,1.400157396E1
3.714100626E0,-8.554041862E0,-9.200403214E0,-5.903990746E0,1.388078377E1
3.716574897E0,-8.465507507E0,-9.260522842E0,-5.367699623E0,1.364676885E1
3.719049012E0,-8.281260490E0,-9.296415329E0,-4.759324074E0,1.332868256E1
3.721522970E0,-8.008178711E0,-9.198010445E0,-4.141676903E0,1.287974417E1
3.723996928E0,-7.788039684E0,-9.131011009E0,-3.521636724E0,1.250723188E1
3.726470835E0,-7.512565613E0,-9.104690552E0,-2.949453115E0,1.216689384E1
3.728944793E0,-7.206284523E0,-9.008976936E0,-2.453839540E0,1.179463991E1
3.731418647E0,-6.856633186E0,-8.858229637E0,-2.054238319E0,1.138865866E1
3.733892657E0,-6.538387775E0,-8.752944946E0,-1.704586983E0,1.105758458E1
3.736366668E0,-6.188736439E0,-8.585148811E0,-1.419841170E0,1.067807041E1
3.738840678E0,-5.870192051E0,-8.424829483E0,-1.208973646E0,1.033917423E1
3.741314585E0,-5.662016392E0,-8.317152023E0,-1.060618639E0,1.011723081E1
3.743788595E0,-5.537590027E0,-8.195118904E0,-9.361918569E-1,9.934854420E0
3.746262710E0,-5.441876888E0,-8.134998322E0,-8.668000102E-1,9.825658452E0
3.748736668E0,-5.307579517E0,-8.079963684E0,-8.476574421E-1,9.704366883E0
3.751210991E0,-5.164010525E0,-8.048856735E0,-8.428717852E-1,9.600079806E0
3.753685782E0,-5.037190914E0,-8.087141991E0,-7.947162390E-1,9.560686784E0
3.756160574E0,-4.900799751E0,-8.164011955E0,-7.348956466E-1,9.550340361E0
3.758635001E0,-4.754538536E0,-8.305188179E0,-6.487540603E-1,9.591802188E0
3.761109480E0,-4.572684288E0,-8.544470787E0,-5.291129351E-1,9.705533634E0
3.763584116E0,-4.433900356E0,-8.796015739E0,-4.118646085E-1,9.858955204E0
3.766058595E0,-4.203890324E0,-9.078369141E0,-2.560320199E-1,1.000774862E1
3.768532970E0,-3.988536358E0,-9.344271660E0,-5.503492057E-2,1.016006220E1
3.771007345E0,-3.605385542E0,-9.559625626E0,9.571290761E-2,1.021735817E1
3.773481564E0,-3.320639610E0,-9.779765129E0,3.065803945E-1,1.033268818E1
3.775955835E0,-3.179463148E0,-1.003848934E1,6.104688644E-1,1.054765028E1
3.778430470E0,-3.095714331E0,-1.028495026E1,9.218349457E-1,1.078023324E1
3.780905314E0,-3.047558784E0,-1.056760216E1,1.230509043E0,1.106688675E1
3.783380105E0,-3.059522867E0,-1.084516907E1,1.525125384E0,1.137120837E1
3.785854689E0,-3.047558784E0,-1.104646587E1,1.845763564E0,1.160684565E1
3.788328960E0,-2.892025232E0,-1.117567825E1,2.106880426E0,1.173450210E1
3.790803126E0,-2.530709028E0,-1.104407310E1,2.288734913E0,1.155916720E1
3.793277710E0,-1.996810555E0,-1.067767239E1,2.439482689E0,1.113332905E1
3.795752345E0,-1.381256819E0,-1.015334511E1,2.496910334E0,1.054669846E1
3.798226720E0,-7.779664397E-1,-9.583553314E0,2.516052961E0,9.938825303E0
3.800701147E0,-2.703889608E-1,-9.028120041E0,2.523231506E0,9.377993330E0
3.803175782E0,5.982056633E-2,-8.537292480E0,2.511267424E0,8.899180045E0
3.805650210E0,2.057827413E-1,-8.159226418E0,2.425125837E0,8.514491036E0
3.808124585E0,2.105683982E-1,-7.931608677E0,2.281556368E0,8.255922402E0
3.810598907E0,3.349951655E-2,-7.778468132E0,2.109273195E0,8.059449244E0
3.813073282E0,-3.041875660E-1,-7.730611801E0,1.900798440E0,7.966675819E0
3.815547762E0,-7.492526174E-1,-7.764111042E0,1.663909078E0,7.975675092E0
3.818022293E0,-1.299900889E0,-7.924430370E0,1.402792215E0,8.151942408E0
3.820496564E0,-1.896012783E0,-8.164011955E0,1.161117196E0,8.461332568E0
3.822970678E0,-2.516052961E0,-8.458329201E0,8.835497499E-1,8.868738103E0
3.825445262E0,-3.124428272E0,-8.807980537E0,5.769693851E-1,9.363517867E0
3.827919689E0,-3.725325823E0,-9.104690552E0,2.584248483E-1,9.840743160E0
3.830393960E0,-4.273581028E0,-9.332307816E0,-6.939185411E-2,1.026451554E1
3.832868439E0,-4.800301552E0,-9.418449402E0,-4.262215197E-1,1.057978019E1
3.835342814E0,-5.242973328E0,-9.449555397E0,-7.827520967E-1,1.083492351E1
3.837817032E0,-5.652445316E0,-9.473484039E0,-1.141974568E0,1.109058807E1
3.840291407E0,-5.980561256E0,-9.509376526E0,-1.465304732E0,1.132883369E1
3.842766095E0,-6.286842346E0,-9.523733139E0,-1.781157374E0,1.154982256E1
3.845240678E0,-6.514459610E0,-9.492626190E0,-2.020738840E0,1.168894869E1
3.847715210E0,-6.598208427E0,-9.430413246E0,-2.224128723E0,1.172244842E1
3.850189897E0,-6.612565517E0,-9.308379173E0,-2.365305185E0,1.166047230E1
3.852664324E0,-6.581458569E0,-9.133403778E0,-2.415554523E0,1.151388575E1
3.855138439E0,-6.430411816E0,-8.992227554E0,-2.389233351E0,1.131011885E1
3.857612553E0,-6.219843388E0,-8.846264839E0,-2.322234392E0,1.106054365E1
3.860086928E0,-5.956633091E0,-8.649754524E0,-2.224128723E0,1.073529132E1
3.862561616E0,-5.678766251E0,-8.443971634E0,-2.082952023E0,1.038690195E1
3.865036460E0,-5.461019516E0,-8.307580948E0,-1.886441588E0,1.011915497E1
3.867510991E0,-5.305186749E0,-8.245368004E0,-1.630409479E0,9.939282420E0
3.869985053E0,-5.190331459E0,-8.247760773E0,-1.388435364E0,9.843416641E0
3.872459324E0,-5.061119080E0,-8.321938515E0,-1.163509965E0,9.809349745E0
3.874933960E0,-4.943870544E0,-8.420043945E0,-9.050851464E-1,9.806027489E0
3.877408491E0,-4.800301552E0,-8.542078018E0,-7.157530785E-1,9.824576038E0
3.879882762E0,-4.716253281E0,-8.721838951E0,-5.530411601E-1,9.930728786E0
3.882356824E0,-4.608576298E0,-8.855836868E0,-3.879363835E-1,9.990761571E0
3.884830991E0,-4.474578381E0,-8.980263710E0,-2.679961324E-1,1.003687252E1
3.887305314E0,-4.369294167E0,-9.114261627E0,-1.459621787E-1,1.010850145E1
3.889779949E0,-4.252045631E0,-9.238688469E0,-2.153540403E-2,1.017023699E1
3.892254689E0,-4.136891365E0,-9.286844254E0,8.614161611E-2,1.016694481E1
3.894729220E0,-4.041178226E0,-9.317950249E0,1.794617027E-1,1.015812605E1
3.897203491E0,-3.959822416E0,-9.351449966E0,2.775674164E-1,1.015907740E1
3.899677449E0,-3.811467409E0,-9.365806580E0,3.257229924E-1,1.011690230E1
3.902151303E0,-3.737289906E0,-9.368199348E0,3.879363835E-1,1.009361132E1
3.904625157E0,-3.722932816E0,-9.423234940E0,4.262215197E-1,1.014096890E1
3.907099324E0,-3.732504129E0,-9.451948166E0,4.405784607E-1,1.017177569E1
3.909573855E0,-3.734897137E0,-9.425627708E0,4.214358926E-1,1.014738994E1
3.912048647E0,-3.761218071E0,-9.351449966E0,3.496512175E-1,1.008556562E1
3.914523282E0,-3.785146236E0,-9.270093918E0,2.898306549E-1,1.001728382E1
3.916997553E0,-3.873680830E0,-9.166903496E0,2.416750938E-1,9.954693854E0
3.919471876E0,-3.950251102E0,-9.092725754E0,1.722832322E-1,9.915232066E0
3.921946460E0,-4.014857292E0,-9.006584167E0,1.268195957E-1,9.861730104E0
3.924421407E0,-4.084249020E0,-8.970691681E0,1.004985496E-1,9.857205448E0
3.926896303E0,-4.165605068E0,-8.939585686E0,5.982056633E-2,9.862658684E0
3.929370835E0,-4.228117466E0,-8.891729355E0,4.785645381E-2,9.845918874E0
3.931845105E0,-4.290330887E0,-8.851051331E0,4.546362907E-2,9.836163669E0
3.934319480E0,-4.295116425E0,-8.776873589E0,3.110669367E-2,9.771514863E0
3.936794116E0,-4.280759811E0,-8.743373871E0,3.828516230E-2,9.735140315E0
3.939268699E0,-4.275974274E0,-8.719446182E0,4.785645381E-2,9.711590393E0
3.941742970E0,-4.211368084E0,-8.721838951E0,4.785645381E-2,9.685472940E0
3.944217449E0,-4.117748737E0,-8.774480820E0,1.196411345E-2,9.692652447E0
3.946692345E0,-4.053142548E0,-8.851051331E0,-5.503492057E-2,9.735096456E0
3.949167032E0,-4.029214382E0,-8.982656479E0,-1.220339537E-1,9.845688307E0
3.951641512E0,-3.998107433E0,-9.111868858E0,-1.435693651E-1,9.951463676E0
3.954116043E0,-3.938287020E0,-9.190832138E0,-9.571290761E-2,9.999533039E0
3.956590418E0,-3.821038723E0,-9.231510162E0,-2.871387079E-2,9.991093098E0
3.959064689E0,-3.682255030E0,-9.190832138E0,1.674975827E-2,9.901044291E0
3.961539064E0,-3.480958700E0,-9.145368576E0,7.178468257E-2,9.785703496E0
3.964013230E0,-3.327818155E0,-9.140582085E0,1.052841991E-1,9.728088162E0
3.966487605E0,-3.222533941E0,-9.174081802E0,1.316052526E-1,9.724495970E0
3.968962345E0,-3.244069338E0,-9.284450531E0,1.483550072E-1,9.836006138E0
3.971436928E0,-3.342175007E0,-9.411270142E0,1.579262912E-1,9.988347219E0
3.973911512E0,-3.492922783E0,-9.530911446E0,1.435693651E-1,1.015181731E1
3.976386147E0,-3.706183195E0,-9.657731056E0,9.810572863E-2,1.034491120E1
3.978860574E0,-3.974179268E0,-9.803693771E0,-7.178467698E-3,1.057858988E1
3.981335105E0,-4.235296249E0,-9.904491425E0,-1.339980662E-1,1.077286592E1
3.983809637E0,-4.539184570E0,-9.957133293E0,-2.874378264E-1,1.094674931E1
3.986284220E0,-4.838586330E0,-9.930811882E0,-4.645066857E-1,1.105661380E1
3.988759012E0,-5.125725269E0,-9.873384476E0,-6.535396576E-1,1.114378278E1
3.991233699E0,-5.403591633E0,-9.827920914E0,-8.018946648E-1,1.124410366E1
3.993708230E0,-5.650052547E0,-9.751050949E0,-9.385846853E-1,1.130871476E1
3.996182866E0,-5.872584820E0,-9.686445236E0,-1.053440213E0,1.137647617E1
3.998657189E0,-6.011667728E0,-9.614660263E0,-1.139581800E0,1.139651208E1
4.001131043E0,-6.116951942E0,-9.523733139E0,-1.213759303E0,1.138383967E1
4.003605053E0,-6.121737480E0,-9.408877373E0,-1.237687469E0,1.129311797E1
4.006079585E0,-6.061916828E0,-9.310771942E0,-1.232901812E0,1.117843266E1
4.008554324E0,-5.903990746E0,-9.248259544E0,-1.218544960E0,1.103957713E1
4.011029064E0,-5.709873199E0,-9.245866776E0,-1.189831018E0,1.093180691E1
4.013503595E0,-5.513661385E0,-9.270093918E0,-1.127617717E0,1.084465882E1
4.015978178E0,-5.360520840E0,-9.303593636E0,-1.043868899E0,1.078803506E1
4.018452814E0,-5.254937649E0,-9.344271660E0,-9.792626500E-1,1.076516316E1
4.020927032E0,-5.187938690E0,-9.341878891E0,-9.170492887E-1,1.072503559E1
4.023400991E0,-5.106582642E0,-9.301200867E0,-8.644071817E-1,1.064597218E1
4.025875262E0,-5.073082924E0,-9.226723671E0,-8.401798606E-1,1.056288324E1
4.028349689E0,-5.049154758E0,-9.097511292E0,-8.042874932E-1,1.043578238E1
4.030824012E0,-4.500899315E0,-8.460721970E0,-7.612167001E-1,9.613602954E0
4.033298387E0,-4.524827480E0,-8.101499557E0,-7.396813035E-1,9.308892911E0
4.035772553E0,-4.986941338E0,-8.219046593E0,-6.631109715E-1,9.636494537E0
4.038246876E0,-5.233402252E0,-8.374580383E0,-5.889334679E-1,9.892873109E0
4.040721460E0,-5.281258583E0,-8.551649094E0,-5.673980713E-1,1.006699235E1
4.043195574E0,-5.223830700E0,-8.661719322E0,-5.793621540E-1,1.013160645E1
4.045669376E0,-5.149653435E0,-8.772088051E0,-6.631109715E-1,1.019353596E1
4.048143387E0,-5.058726311E0,-8.860622406E0,-7.564310431E-1,1.023100822E1
4.050617918E0,-4.912764072E0,-8.951549530E0,-8.548358679E-1,1.024676701E1
4.053092553E0,-4.711467743E0,-9.004191399E0,-9.361918569E-1,1.020538320E1
4.055567137E0,-4.488935471E0,-9.054440498E0,-9.888339639E-1,1.015436985E1
4.058041824E0,-4.275974274E0,-9.116654396E0,-9.840483069E-1,1.011759331E1
4.060516616E0,-4.091427803E0,-9.195617676E0,-9.361918569E-1,1.010819574E1
4.062991355E0,-3.921537161E0,-9.229117393E0,-8.811569214E-1,1.006635481E1
4.065465991E0,-3.809074640E0,-9.241081238E0,-7.779664397E-1,1.002556052E1
4.067940835E0,-3.701397419E0,-9.219545364E0,-6.846463680E-1,9.958368352E0
4.070415730E0,-3.605385542E0,-9.107083321E0,-5.434698462E-1,9.809848673E0
4.072890730E0,-3.538386583E0,-9.001798630E0,-3.951148391E-1,9.680324061E0
4.075365730E0,-3.464209080E0,-8.891729355E0,-2.488535494E-1,9.545968969E0
4.077840678E0,-3.382853031E0,-8.800801277E0,-1.244267747E-1,9.429383849E0
4.080315626E0,-3.313461065E0,-8.690432549E0,-2.632104978E-2,9.300716903E0
