"Time (s)","Acceleration x (m/s^2)","Acceleration y (m/s^2)","Acceleration z (m/s^2)","Absolute acceleration (m/s^2)"
0.000000000E0,-4.778766155E0,1.884048700E0,8.784051895E0,1.017574632E1
0.000000000E0,-4.824229717E0,1.855334878E0,8.616254807E0,1.004765180E1
4.079360000E-4,-4.888835907E0,1.836192250E0,8.429615021E0,9.916185149E0
2.932624000E-3,-4.929513931E0,1.852941990E0,8.278866768E0,9.811887513E0
5.457468000E-3,-4.951049328E0,1.869691849E0,8.134998322E0,9.704990198E0
7.982259000E-3,-4.972584724E0,1.924726725E0,8.036892891E0,9.644833806E0
1.050699900E-2,-4.958227634E0,1.972882271E0,7.953144073E0,9.577514625E0
1.303158200E-2,-4.893621445E0,2.003988981E0,7.905287743E0,9.510892544E0
1.555616600E-2,-4.838586330E0,2.035095692E0,7.907680511E0,9.491308826E0
1.808064500E-2,-4.781158924E0,2.044667006E0,7.965108395E0,9.512260276E0
2.060517600E-2,-4.711467743E0,2.044667006E0,8.036892891E0,9.537831976E0
2.312970700E-2,-4.646861553E0,2.037488461E0,8.108677864E0,9.565319557E0
2.565423800E-2,-4.610969067E0,1.989632010E0,8.195118904E0,9.611433042E0
2.817877000E-2,-4.548755646E0,1.943869352E0,8.307580948E0,9.668800711E0
3.070330100E-2,-4.546362877E0,1.924726725E0,8.221439362E0,9.589893302E0
3.322783200E-2,-4.536791801E0,1.886441588E0,8.211868286E0,9.569530943E0
3.575236300E-2,-4.524827480E0,1.848156333E0,8.159226418E0,9.511189268E0
3.827689500E-2,-4.491328239E0,1.833799481E0,8.197511673E0,9.525442117E0
4.080142600E-2,-4.453042984E0,1.860120535E0,8.132605553E0,9.456686169E0
4.332595700E-2,-4.424329281E0,1.903191328E0,8.075178146E0,9.402410803E0
4.585048800E-2,-4.407579422E0,1.960619092E0,8.017750740E0,9.357088784E0
4.837502000E-2,-4.398007870E0,2.030309916E0,7.953144073E0,9.312203404E0
5.089955100E-2,-4.323830605E0,1.996810555E0,7.862216949E0,9.192236880E0
5.342408200E-2,-4.043570995E0,1.807478428E0,7.831110477E0,8.996873678E0
5.594861300E-2,-3.945465326E0,1.709372640E0,7.895716667E0,8.990605828E0
5.847314500E-2,-4.055535316E0,1.709372640E0,8.142476082E0,9.255767838E0
6.099767600E-2,-4.196712017E0,1.730908036E0,8.376973152E0,9.527964818E0
6.352220700E-2,-4.476971149E0,1.884048700E0,8.475078583E0,9.768309330E0
6.604673800E-2,-4.891228676E0,2.147558212E0,8.470293045E0,1.001408950E1
6.857127000E-2,-5.106582642E0,2.331805706E0,8.312366486E0,1.003045067E1
7.109580100E-2,-5.037190914E0,2.355733871E0,8.096714020E0,9.822400536E0
7.362033200E-2,-4.943870544E0,2.341377020E0,7.910073280E0,9.617336513E0
7.614486300E-2,-4.869693279E0,2.327019930E0,7.902894974E0,9.569988681E0
7.866939500E-2,-4.795515537E0,2.281556368E0,8.056035995E0,9.648947336E0
8.119392600E-2,-4.718646049E0,2.195414782E0,8.281260490E0,9.780835440E0
8.371845700E-2,-4.682754040E0,2.142772675E0,8.515756607E0,9.951772240E0
8.624298800E-2,-4.618147850E0,2.073380709E0,8.796015739E0,1.014869893E1
8.876752000E-2,-4.515256405E0,2.025524378E0,9.054440498E0,1.031858431E1
9.129205100E-2,-4.453042984E0,2.018345833E0,9.291629791E0,1.049941407E1
9.381658200E-2,-4.421936035E0,2.037488461E0,9.480662346E0,1.065775943E1
9.634111300E-2,-4.438685894E0,2.030309916E0,9.595518112E0,1.076559607E1
9.886564500E-2,-4.484149456E0,1.999203324E0,9.609874725E0,1.079139020E1
1.013901760E-1,-4.577469826E0,1.953440547E0,9.590732574E0,1.080515207E1
1.039147070E-1,-4.620540619E0,1.881655931E0,9.564411163E0,1.078739939E1
1.064392380E-1,-4.694717884E0,1.869691849E0,9.552447319E0,1.080672815E1
1.089637700E-1,-4.754538536E0,1.869691849E0,9.528518677E0,1.081175529E1
1.114883010E-1,-4.728217602E0,1.852941990E0,9.514162064E0,1.078465185E1
1.140128320E-1,-4.668396950E0,1.862513304E0,9.466305733E0,1.071792098E1
1.165373630E-1,-4.589433670E0,1.869691849E0,9.399306297E0,1.062570505E1
1.190618950E-1,-4.508078098E0,1.881655931E0,9.322735786E0,1.052505581E1
1.215864260E-1,-4.436293125E0,1.915155411E0,9.224330902E0,1.041329907E1
1.241109570E-1,-4.309473515E0,1.936690807E0,9.073583603E0,1.022996836E1
1.266354880E-1,-4.211368084E0,1.972882271E0,8.903693199E0,1.004508030E1
1.291600200E-1,-4.074677944E0,2.013560295E0,8.724231720E0,9.837156323E0
1.316845510E-1,-3.938287020E0,2.042274237E0,8.537292480E0,9.621140868E0
1.342090820E-1,-3.821038723E0,2.059023857E0,8.343473434E0,9.404970235E0
1.367336130E-1,-3.770789385E0,2.056631088E0,8.144868851E0,9.208011328E0
1.392581450E-1,-3.797110319E0,2.018345833E0,7.945965767E0,9.034939881E0
1.417826760E-1,-3.854538202E0,1.987239242E0,7.725826263E0,8.859739049E0
1.443072070E-1,-3.938287020E0,1.958226204E0,7.474280834E0,8.672348500E0
1.468317380E-1,-4.029214382E0,1.953440547E0,7.251748085E0,8.522813432E0
1.493562700E-1,-4.283152580E0,1.687837243E0,7.014858723E0,8.390615799E0
1.518808010E-1,-4.551148891E0,1.412662625E0,6.811169624E0,8.312677281E0
1.544053320E-1,-4.548755646E0,1.501197100E0,6.818347931E0,8.332744996E0
1.569298630E-1,-4.429114819E0,1.745265007E0,6.830312252E0,8.325633518E0
1.594543950E-1,-4.268795490E0,1.994417667E0,6.916453838E0,8.368850009E0
1.619789260E-1,-4.144069672E0,2.219342947E0,6.990631580E0,8.424234473E0
1.645034570E-1,-4.055535316E0,2.367697954E0,7.122535706E0,8.531346622E0
1.670279880E-1,-4.026821613E0,2.415554523E0,7.211070061E0,8.605215127E0
1.695525200E-1,-4.026821613E0,2.410768747E0,7.297211647E0,8.676197098E0
1.720770510E-1,-4.048357010E0,2.374876499E0,7.368996620E0,8.736781104E0
1.746015820E-1,-4.045963764E0,2.334198475E0,7.455138206E0,8.797578700E0
1.771261130E-1,-4.074677944E0,2.324627161E0,7.488637447E0,8.836661282E0
1.796506450E-1,-4.091427803E0,2.257628202E0,7.567600727E0,8.894113072E0
1.821751760E-1,-4.132105827E0,2.219342947E0,7.601399422E0,8.932024118E0
1.846997070E-1,-4.184747696E0,2.190629244E0,7.555636406E0,8.910589838E0
1.872242380E-1,-4.230510235E0,2.178664923E0,7.409674644E0,8.806081764E0
1.897487700E-1,-4.280759811E0,2.166700840E0,7.153642178E0,8.613599335E0
1.922733010E-1,-4.268795490E0,2.188236237E0,6.897311211E0,8.401422183E0
1.947978320E-1,-4.254438877E0,2.262413740E0,6.538387775E0,8.122147548E0
1.973223630E-1,-4.228117466E0,2.367697954E0,6.042774677E0,7.745843835E0
1.998468950E-1,-4.153641224E0,2.439482689E0,5.623731613E0,7.404739595E0
2.023714260E-1,-4.060320854E0,2.477767944E0,5.449055195E0,7.233100438E0
2.048959570E-1,-3.959822416E0,2.482553482E0,5.453841209E0,7.182454267E0
2.074204880E-1,-3.801896095E0,2.439482689E0,5.578267574E0,7.177921624E0
2.099450200E-1,-3.607778311E0,2.398804665E0,5.748157978E0,7.198030863E0
2.124695510E-1,-3.421138287E0,2.341377020E0,5.973382473E0,7.271006237E0
2.149940820E-1,-3.210569859E0,2.269592285E0,6.234200478E0,7.370485978E0
2.175186130E-1,-2.990130901E0,2.185843468E0,6.504888535E0,7.485477227E0
2.200431450E-1,-2.834597588E0,2.140379906E0,6.768098831E0,7.643515645E0
2.225676760E-1,-2.738884687E0,2.061416626E0,6.969096184E0,7.766545529E0
2.250922070E-1,-2.461018085E0,1.994417667E0,7.246962547E0,7.909031421E0
2.276167380E-1,-2.149951220E0,2.011167526E0,7.661220074E0,8.207397766E0
2.301412700E-1,-1.910369754E0,2.025524378E0,8.039285660E0,8.507783232E0
2.326658010E-1,-1.800299883E0,2.037488461E0,8.333902359E0,8.766205988E0
2.351903320E-1,-1.773978829E0,1.960619092E0,8.568398476E0,8.967077592E0
2.377148630E-1,-1.795514345E0,1.881655931E0,8.827122688E0,9.202314696E0
2.402393950E-1,-1.872084618E0,1.826620936E0,9.066405296E0,9.436151221E0
2.427639260E-1,-1.987239242E0,1.762014747E0,9.284450531E0,9.656854427E0
2.452884570E-1,-2.075773716E0,1.692622900E0,9.499805450E0,9.870162734E0
2.478129880E-1,-2.106880426E0,1.651944876E0,9.696016312E0,1.005885676E1
2.503375200E-1,-2.111665964E0,1.628016710E0,9.844670296E0,1.019936786E1
2.528620510E-1,-2.068595171E0,1.651944876E0,1.000738239E1,1.035160423E1
2.553865820E-1,-2.027917147E0,1.685444474E0,1.036151981E1,1.069178488E1
2.579111130E-1,-1.936690807E0,1.752443433E0,1.079491997E1,1.110640024E1
2.604356450E-1,-1.785943031E0,1.886441588E0,1.115414238E1,1.145264802E1
2.629601760E-1,-1.599302888E0,2.011167526E0,1.137189007E1,1.165857831E1
2.654847070E-1,-1.460519075E0,2.178664923E0,1.149870968E1,1.179406720E1
2.680092380E-1,-1.415055513E0,2.303091764E0,1.153968620E1,1.185204503E1
2.705337700E-1,-1.427019596E0,2.422732830E0,1.152772236E1,1.186568169E1
2.730583010E-1,-1.580160260E0,2.533101797E0,1.147956657E1,1.186144847E1
2.755828320E-1,-1.728515267E0,2.662314177E0,1.134317589E1,1.177893548E1
2.781073630E-1,-1.814656854E0,2.755634308E0,1.114457130E1,1.162273503E1
2.806318950E-1,-1.946262121E0,2.841775894E0,1.095075321E1,1.147966125E1
2.831564260E-1,-2.044667006E0,2.925524712E0,1.073749256E1,1.131517143E1
2.856809570E-1,-2.121237278E0,2.990130901E0,1.048863888E1,1.111089897E1
2.882054880E-1,-2.161915302E0,3.004487991E0,1.026819992E1,1.091497849E1
2.907300200E-1,-2.173879385E0,3.035594702E0,1.006480980E1,1.073503531E1
2.932545510E-1,-2.221735716E0,3.037987471E0,9.868598938E0,1.056194691E1
2.957790820E-1,-2.238485575E0,2.982952595E0,9.655338287E0,1.035057396E1
2.983036130E-1,-2.195414782E0,2.880061150E0,9.387342453E0,1.006164980E1
3.008281450E-1,-2.087737799E0,2.743670225E0,9.054440498E0,9.688615389E0
3.033526760E-1,-1.943869352E0,2.609672308E0,8.700303078E0,9.288933806E0
3.058772070E-1,-1.793121457E0,2.470589399E0,8.345866203E0,8.886651744E0
3.084017380E-1,-1.678265929E0,2.310270309E0,8.005785942E0,8.499796114E0
3.109262700E-1,-1.575374603E0,2.135594130E0,7.733004570E0,8.175691231E0
3.134508010E-1,-1.527518153E0,1.968096614E0,7.562815189E0,7.962593144E0
3.159753320E-1,-1.441376567E0,1.821835399E0,7.447959423E0,7.801842744E0
3.184998630E-1,-1.381256819E0,1.733300924E0,7.371389389E0,7.697375138E0
3.210243950E-1,-1.398006678E0,1.692622900E0,7.342675209E0,7.663828950E0
3.235489260E-1,-1.434198022E0,1.709372640E0,7.318747044E0,7.651335640E0
3.260734570E-1,-1.508375525E0,1.704586983E0,7.285247803E0,7.632538834E0
3.285979880E-1,-1.659123421E0,1.680658817E0,7.313961506E0,7.685788020E0
3.311225200E-1,-1.862513304E0,1.685444474E0,7.414460182E0,7.828403329E0
3.336470510E-1,-2.109273195E0,1.675873160E0,7.546065331E0,8.012533072E0
3.361715820E-1,-2.303091764E0,1.709372640E0,7.639684677E0,8.160328943E0
3.386961130E-1,-2.480160713E0,1.733300924E0,7.675576687E0,8.250454941E0
3.412206450E-1,-2.674278498E0,1.766800404E0,7.599006653E0,8.247317822E0
3.437451760E-1,-2.781955481E0,1.824228168E0,7.440781116E0,8.150601716E0
3.462697070E-1,-2.858525753E0,1.872084618E0,7.234998226E0,8.001316743E0
3.487942380E-1,-2.908775091E0,1.910369754E0,7.043572426E0,7.856360331E0
3.513187700E-1,-2.990130901E0,1.929512382E0,6.923632145E0,7.784637623E0
3.538433010E-1,-3.093321562E0,1.963011861E0,6.842276573E0,7.761366024E0
3.563678320E-1,-3.162713289E0,1.989632010E0,6.789634228E0,7.749872504E0
3.588923630E-1,-3.133999348E0,2.037488461E0,6.746563435E0,7.712939084E0
3.614168950E-1,-3.059522867E0,2.140379906E0,6.674778938E0,7.648174958E0
3.639414260E-1,-2.973381281E0,2.264806747E0,6.576673031E0,7.564586836E0
3.664659570E-1,-2.820240498E0,2.417947292E0,6.495316982E0,7.482604378E0
3.689904880E-1,-1.292722464E0,2.743670225E0,7.041179657E0,7.666620418E0
3.715150200E-1,1.435693651E-1,3.088535786E0,7.883752346E0,8.468365634E0
3.740395510E-1,2.081755698E-1,3.110071182E0,8.269295692E0,8.837258120E0
3.765640820E-1,-3.589234129E-2,3.042773008E0,8.546863556E0,9.072410511E0
3.790886130E-1,-2.874378264E-1,2.887239695E0,8.846264839E0,9.309950331E0
3.816131450E-1,-5.793621540E-1,2.698206663E0,9.164510727E0,9.571010217E0
3.841376760E-1,-9.002995491E-1,2.480160713E0,9.557232857E0,9.914758510E0
3.866622070E-1,-1.185045362E0,2.317448616E0,9.945169449E0,1.028014085E1
3.891867380E-1,-1.436590910E0,2.181057930E0,1.024905777E1,1.057657753E1
3.917112700E-1,-1.592124343E0,2.087737799E0,1.045035362E1,1.077512876E1
3.942358010E-1,-1.642373681E0,2.061416626E0,1.052692413E1,1.085186443E1
3.967603320E-1,-1.599302888E0,2.121237278E0,1.054845905E1,1.087784012E1
3.992848630E-1,-1.568196177E0,2.197807550E0,1.053649521E1,1.087691724E1
4.018093950E-1,-1.515554070E0,2.307877541E0,1.048385334E1,1.084132758E1
4.043339260E-1,-1.395613790E0,2.427518606E0,1.041446114E1,1.078432127E1
4.068584570E-1,-1.264008522E0,2.552244425E0,1.038335514E1,1.076688131E1
4.093829880E-1,-1.134796143E0,2.662314177E0,1.037348461E1,1.076962683E1
4.119075200E-1,-1.027119160E0,2.746062994E0,1.038574791E1,1.079164470E1
4.144320510E-1,-1.003190875E0,2.781955481E0,1.046471119E1,1.087455050E1
4.169565820E-1,-1.053440213E0,2.765205622E0,1.055803108E1,1.096485835E1
4.194811130E-1,-1.079761267E0,2.750848770E0,1.066092205E1,1.106292512E1
4.220056450E-1,-1.098903775E0,2.736491680E0,1.073988533E1,1.113737461E1
4.245301760E-1,-1.173081279E0,2.686242580E0,1.079731274E1,1.118811786E1
4.270547070E-1,-1.240080357E0,2.631207705E0,1.080209827E1,1.118688430E1
4.295792380E-1,-1.311864972E0,2.580958366E0,1.083081245E1,1.121110317E1
4.321037700E-1,-1.323829174E0,2.523231506E0,1.088345432E1,1.125027995E1
4.346283010E-1,-1.237687469E0,2.396411896E0,1.096510983E1,1.129195704E1
4.371528320E-1,-1.041476011E0,2.159522533E0,1.094836044E1,1.120780113E1
4.396773630E-1,-9.194421172E-1,2.082952023E0,1.094357395E1,1.117791903E1
4.422018950E-1,-7.301099896E-1,2.092523336E0,1.091216850E1,1.113495110E1
4.447264260E-1,-5.602195859E-1,2.178664923E0,1.084038353E1,1.107132973E1
4.472509570E-1,-4.166502357E-1,2.260020971E0,1.071595669E1,1.095960857E1
4.497754880E-1,-2.946162820E-1,2.370090723E0,1.060828018E1,1.087380969E1
4.523000200E-1,-2.799602449E-1,2.571387053E0,1.057238770E1,1.088419913E1
4.548245510E-1,-2.874378264E-1,2.738884687E0,1.058674431E1,1.093907057E1
4.573490820E-1,-3.017947674E-1,2.882453918E0,1.057478046E1,1.096474361E1
4.598736130E-1,-3.065803945E-1,3.014059305E0,1.060828018E1,1.103241376E1
4.623981450E-1,-2.826521695E-1,3.129213810E0,1.069442177E1,1.114641325E1
4.649226760E-1,-2.368894368E-1,3.244069338E0,1.076381397E1,1.124454506E1
4.674472070E-1,-2.321037948E-1,3.370888948E0,1.077817059E1,1.129538515E1
4.699717380E-1,-2.560320199E-1,3.514458179E0,1.073031425E1,1.129409636E1
4.724962700E-1,-2.922234535E-1,3.598206997E0,1.059631634E1,1.119439181E1
4.750208010E-1,-3.999004960E-1,3.653541088E0,1.044078255E1,1.106879501E1
4.775453320E-1,-5.506483316E-1,3.706183195E0,1.027298546E1,1.093495486E1
4.800698630E-1,-6.918248534E-1,3.751646757E0,1.009352398E1,1.079039857E1
4.825943950E-1,-8.620143533E-1,3.756432533E0,9.870991707E0,1.059671324E1
4.851189260E-1,-1.046261668E0,3.744468451E0,9.672088623E0,1.042425085E1
4.876434570E-1,-1.168295622E0,3.677469254E0,9.516554832E0,1.026905598E1
4.901679880E-1,-1.206580877E0,3.559921980E0,9.356235504E0,1.008305632E1
4.926925200E-1,-1.127617717E0,3.447459221E0,9.128618240E0,9.822839089E0
4.952170510E-1,-9.696913958E-1,3.318246841E0,8.628219604E0,9.295011407E0
4.977415820E-1,-7.325028181E-1,3.275176048E0,7.776075363E0,8.469397061E0
5.002661130E-1,-4.597210586E-1,3.311068296E0,7.256533623E0,7.989480392E0
5.027906450E-1,-9.571290761E-2,3.344567776E0,7.004988194E0,7.763063452E0
5.053151760E-1,2.874378264E-1,3.425923824E0,6.648457527E0,7.484755310E0
5.078397070E-1,6.702894568E-1,3.478565931E0,6.049952984E0,7.010823062E0
5.103642380E-1,9.840483069E-1,3.378067255E0,5.264508724E0,6.332040868E0
5.128887700E-1,9.984052777E-1,3.385245800E0,4.682754040E0,5.863862858E0
5.154133010E-1,9.146564603E-1,3.289532900E0,4.321437836E0,5.507490182E0
5.179378320E-1,8.114659786E-1,3.069094181E0,4.187140465E0,5.254518189E0
5.204623630E-1,7.061817646E-1,2.844168901E0,4.201497555E0,5.122555137E0
5.229868950E-1,5.673980713E-1,2.702992201E0,4.426722050E0,5.217659965E0
5.255114260E-1,4.645066857E-1,2.566601276E0,4.829015255E0,5.488405680E0
5.280359570E-1,3.927220106E-1,2.508874655E0,5.389235020E0,5.957561305E0
5.305604880E-1,4.357928336E-1,2.499303341E0,5.973382473E0,6.489817467E0
5.330850200E-1,6.008976102E-1,2.463410854E0,6.466603279E0,6.945964940E0
5.356095510E-1,7.492526174E-1,2.477767944E0,6.926024914E0,7.393952568E0
5.381340820E-1,9.601200819E-1,2.533101797E0,7.347461224E0,7.830940028E0
5.406586130E-1,1.247258782E0,2.533101797E0,7.697112083E0,8.198645840E0
5.431831450E-1,1.427019596E0,2.446661234E0,8.012965202E0,8.498832123E0
5.457076760E-1,1.479661703E0,2.288734913E0,8.336295128E0,8.770491589E0
5.482322070E-1,1.290329576E0,1.886441588E0,8.628219604E0,8.925793288E0
5.507567380E-1,1.091725349E0,1.584945917E0,8.927620888E0,9.132706746E0
5.532812700E-1,1.029511929E0,1.517946839E0,9.221938133E0,9.402563499E0
5.558058010E-1,1.015154958E0,1.632802367E0,9.432806015E0,9.626755034E0
5.583303320E-1,1.091725349E0,1.848156333E0,9.585947037E0,9.823335821E0
5.608548630E-1,1.153938770E0,2.073380709E0,9.696016312E0,9.982144788E0
5.633793950E-1,1.086939692E0,2.212164640E0,9.911669731E0,1.021353549E1
5.659039260E-1,1.031904817E0,2.348555326E0,1.019402313E1,1.051183368E1
5.684284570E-1,9.936196208E-1,2.523231506E0,1.047667503E1,1.082195440E1
5.709529880E-1,9.505487680E-1,2.738884687E0,1.072074318E1,1.110582580E1
5.734775200E-1,9.074779749E-1,2.925524712E0,1.093848991E1,1.135925934E1
5.760020510E-1,8.090731502E-1,3.064308405E0,1.114696407E1,1.158876151E1
5.785265820E-1,7.157530785E-1,3.155534744E0,1.137428284E1,1.182556603E1
5.810511130E-1,6.200401783E-1,3.131606579E0,1.162104225E1,1.205155727E1
5.835756450E-1,4.501497746E-1,3.009273529E0,1.187468147E1,1.225832052E1
5.861001760E-1,2.321037948E-1,2.848954439E0,1.215972614E1,1.249117102E1
5.886247070E-1,-1.196411345E-2,2.652743101E0,1.243729401E1,1.271705435E1
5.911492380E-1,-2.608176768E-1,2.439482689E0,1.272473145E1,1.295908531E1
5.936737700E-1,-4.262215197E-1,2.327019930E0,1.299272823E1,1.320634974E1
5.961983010E-1,-4.860421121E-1,2.252842426E0,1.317458248E1,1.337464614E1
5.987228320E-1,-4.357928336E-1,2.181057930E0,1.328734398E1,1.347220988E1
6.012473630E-1,-2.850449979E-1,2.176272154E0,1.333280754E1,1.351225992E1
6.037718950E-1,-1.004985496E-1,2.176272154E0,1.332084370E1,1.349781972E1
6.062964260E-1,9.571290761E-2,2.185843468E0,1.326341629E1,1.344266656E1
6.088209570E-1,2.922234535E-1,2.157129526E0,1.316979694E1,1.334848882E1
6.113454880E-1,4.932205677E-1,2.126022816E0,1.303340626E1,1.321487488E1
6.138700200E-1,7.085745931E-1,2.068595171E0,1.285633659E1,1.304095681E1
6.163945510E-1,9.361918569E-1,1.960619092E0,1.260479164E1,1.279067061E1
6.189190820E-1,1.177866936E0,1.826620936E0,1.228654575E1,1.247730424E1
6.214436130E-1,1.460519075E0,1.678265929E0,1.186511040E1,1.207189038E1
6.239681450E-1,1.733300924E0,1.517946839E0,1.142213917E1,1.165219970E1
6.264926760E-1,2.003988981E0,1.357328653E0,1.098903847E1,1.125243437E1
6.290172070E-1,2.233700037E0,1.165902853E0,1.062981510E1,1.092436334E1
6.315417380E-1,2.391626120E0,9.170492887E-1,1.031605625E1,1.062929308E1
6.340662700E-1,2.506481647E0,6.990033388E-1,1.006720352E1,1.039805956E1
6.365908010E-1,2.516052961E0,4.716851711E-1,9.899705887E0,1.022532083E1
6.391153320E-1,2.408375978E0,2.440679073E-1,9.743872643E0,1.004006464E1
6.416398630E-1,2.166700840E0,1.914258115E-2,9.614660263E0,9.855792761E0
6.441643950E-1,1.754836321E0,-2.273181528E-1,9.731908798E0,9.891469704E0
6.466889260E-1,1.208973646E0,-5.626124144E-1,1.020837975E1,1.029510403E1
6.492134570E-1,8.306085467E-1,-7.971090674E-1,1.094088268E1,1.100128208E1
6.517379880E-1,1.012762189E0,-8.644071817E-1,1.155643559E1,1.163288831E1
6.542625200E-1,1.582553029E0,-7.061817646E-1,1.187946701E1,1.200520317E1
6.567870510E-1,2.188236237E0,-3.448655605E-1,1.207837009E1,1.227983445E1
6.593115820E-1,2.698206663E0,-1.004985496E-1,1.247557926E1,1.276442310E1
6.618361130E-1,2.963809967E0,1.579262912E-1,1.233679581E1,1.268879983E1
6.643606450E-1,3.320639610E0,7.253243923E-1,1.200150108E1,1.247352280E1
6.668851760E-1,3.447459221E0,1.168295622E0,1.169761276E1,1.225087891E1
6.694097070E-1,3.413959742E0,1.415055513E0,1.146760273E1,1.204837813E1
6.719342380E-1,3.315854073E0,1.587338686E0,1.128814125E1,1.187167491E1
6.744587700E-1,3.239283562E0,1.671087503E0,1.112782192E1,1.170956499E1
6.769833010E-1,2.963809967E0,1.874477386E0,1.111585712E1,1.165590471E1
6.795078320E-1,2.408375978E0,1.929512382E0,1.114217854E1,1.156163636E1
6.820323630E-1,2.015953064E0,1.711765528E0,1.089302635E1,1.120947060E1
6.845568950E-1,1.623231053E0,1.752443433E0,1.075424194E1,1.101633591E1
6.870814260E-1,1.063011408E0,2.027917147E0,1.076142120E1,1.100230101E1
6.896059570E-1,2.946162820E-1,2.370090723E0,1.045992470E1,1.072912641E1
6.921304880E-1,-6.774678826E-1,2.729313374E0,9.779765129E0,1.017604639E1
6.946550200E-1,-1.769193292E0,3.157927752E0,9.461520195E0,1.013029698E1
6.971795510E-1,-2.743670225E0,3.574278831E0,9.669695854E0,1.066799950E1
6.997040820E-1,-3.327818155E0,3.888037682E0,1.005284595E1,1.128055506E1
7.022286130E-1,-3.485744476E0,4.096213341E0,1.021555805E1,1.154499912E1
7.047531450E-1,-3.382853031E0,4.247260094E0,1.017727280E1,1.153515472E1
7.072776760E-1,-3.184248686E0,4.331008911E0,1.005284595E1,1.139985920E1
7.098022070E-1,-3.040380239E0,4.326223373E0,9.959526062E0,1.127618198E1
7.123267380E-1,-3.042773008E0,4.249652863E0,1.027777100E1,1.153042036E1
7.148512700E-1,-3.136392355E0,4.153641224E0,1.016770172E1,1.142242753E1
7.173758010E-1,-3.227319479E0,4.100998878E0,9.739087105E0,1.104914478E1
7.199003320E-1,-3.356531858E0,4.022035599E0,9.377771378E0,1.074177232E1
7.224248630E-1,-3.591028690E0,3.876073599E0,9.198010445E0,1.060767787E1
7.249493950E-1,-3.871287823E0,3.660719633E0,9.209974289E0,1.064008290E1
7.274739260E-1,-4.081856251E0,3.411566973E0,9.291629791E0,1.070676066E1
7.299984570E-1,-4.170390606E0,3.172284603E0,9.174081802E0,1.056500470E1
7.325229880E-1,-4.115355968E0,2.987738132E0,8.913264275E0,1.026201802E1
7.350475200E-1,-3.938287020E0,2.825026274E0,8.573184013E0,9.848368506E0
7.375720510E-1,-3.636492252E0,2.731706142E0,8.197511673E0,9.374726235E0
7.400965820E-1,-3.239283562E0,2.695813894E0,7.893323898E0,8.947901023E0
7.426211130E-1,-3.049951553E0,2.638386011E0,7.728219032E0,8.717147161E0
7.451456450E-1,-2.939881802E0,2.635993242E0,7.709076405E0,8.661479342E0
7.476701760E-1,-2.796312332E0,2.679064035E0,7.821538925E0,8.727726962E0
7.501947070E-1,-2.652743101E0,2.731706142E0,7.833503246E0,8.709939008E0
7.527192380E-1,-2.516052961E0,2.803490877E0,7.826324463E0,8.685703092E0
7.552437700E-1,-2.396411896E0,2.908775091E0,7.771289825E0,8.636938581E0
7.577683010E-1,-2.327019930E0,3.052344322E0,7.560422421E0,8.478904103E0
7.602928320E-1,-2.303091764E0,3.179463148E0,7.337889671E0,8.322129680E0
7.628173630E-1,-2.286342144E0,3.409173965E0,7.077072144E0,8.181367713E0
7.653418950E-1,-2.341377020E0,3.682255030E0,6.839883327E0,8.113263979E0
7.678664260E-1,-2.398804665E0,4.014857292E0,6.736992359E0,8.201244353E0
7.703909570E-1,-2.449054003E0,4.292723656E0,6.646064758E0,8.282241162E0
7.729154880E-1,-2.533101797E0,4.541577339E0,6.543173313E0,8.357969038E0
7.754400200E-1,-2.640778780E0,4.761716843E0,6.512066841E0,8.488502483E0
7.779645510E-1,-2.836990356E0,4.927121162E0,6.552744865E0,8.675454023E0
7.804890820E-1,-3.049951553E0,5.152046204E0,6.524031162E0,8.854872510E0
7.830136130E-1,-3.189034462E0,5.511268616E0,6.327520370E0,8.976721929E0
7.855381450E-1,-3.153141975E0,6.066702843E0,5.865406513E0,9.008339540E0
7.880626760E-1,-2.956631422E0,6.569494724E0,5.312365532E0,8.951042277E0
7.905872070E-1,-2.724527597E0,6.708278179E0,4.934299469E0,8.761926615E0
7.931117380E-1,-2.533101797E0,6.516852379E0,4.862514496E0,8.516455652E0
7.956362700E-1,-2.386840582E0,6.155237198E0,4.989334106E0,8.275107718E0
7.981608010E-1,-2.322234392E0,5.544768333E0,4.809872627E0,7.698837778E0
8.006853320E-1,-2.214557409E0,5.097011566E0,4.900799751E0,7.409563390E0
8.032098630E-1,-2.164308071E0,4.637290478E0,4.977370262E0,7.138830936E0
8.057343950E-1,-2.126022816E0,4.213760853E0,5.259723186E0,7.066855138E0
8.082589260E-1,-2.140379906E0,3.923929930E0,5.738586903E0,7.273914481E0
8.107834570E-1,-2.128415823E0,3.699004650E0,6.286842346E0,7.598498273E0
8.133079880E-1,-2.023131609E0,3.567100286E0,6.760920525E0,7.907421343E0
8.158325200E-1,-1.891227245E0,3.588635683E0,6.961917400E0,8.057502122E0
8.183570510E-1,-1.800299883E0,3.564707518E0,6.911668301E0,7.982441860E0
8.208815820E-1,-1.716551185E0,3.528815269E0,6.648457527E0,7.720173098E0
8.234061130E-1,-1.604088426E0,3.562314749E0,6.313163280E0,7.424231721E0
8.259306450E-1,-1.455733418E0,3.758825302E0,6.361020088E0,7.530637689E0
8.284551760E-1,-1.146760225E0,4.402793884E0,7.203891754E0,8.520311579E0
8.309797070E-1,-8.715856671E-1,4.680361271E0,6.861418724E0,8.351317867E0
8.335042380E-1,-8.668000102E-1,4.148855209E0,5.685945034E0,7.091848330E0
8.360287700E-1,-1.005583763E0,3.468994617E0,5.142475128E0,6.284120687E0
8.385533010E-1,-1.232901812E0,2.961417198E0,5.309972763E0,6.203696434E0
8.410778320E-1,-1.429412484E0,2.480160713E0,5.724229813E0,6.400095637E0
8.436023630E-1,-1.527518153E0,2.118844509E0,6.167201042E0,6.697550482E0
8.461268950E-1,-1.893620014E0,1.659123421E0,7.225427151E0,7.651489057E0
8.486514260E-1,-2.793919563E0,1.434198022E0,9.430413246E0,9.939597803E0
8.511759570E-1,-3.042773008E0,1.872084618E0,1.067767239E1,1.125947850E1
8.537004880E-1,-2.394019127E0,2.133201361E0,1.022512913E1,1.071611596E1
8.562250200E-1,-1.575374603E0,1.939083695E0,9.490233421E0,9.813581462E0
8.587495510E-1,-9.505487680E-1,1.668694735E0,9.188439369E0,9.386985838E0
8.612740820E-1,-5.769693851E-1,1.546660781E0,9.274879456E0,9.420639159E0
8.637986130E-1,-3.257229924E-1,1.527518153E0,9.411270142E0,9.539990192E0
8.663231450E-1,-1.339980662E-1,1.577767372E0,9.480662346E0,9.611985429E0
8.688476760E-1,-5.024927482E-2,1.594517231E0,9.717552185E0,9.847630713E0
8.713722070E-1,-1.411765367E-1,1.685444474E0,1.022512913E1,1.036406868E1
8.738967380E-1,-3.711866140E-1,1.817049742E0,1.098185921E1,1.113735520E1
8.764212700E-1,-6.655037999E-1,1.891227245E0,1.171675491E1,1.188705100E1
8.789326240E-1,-9.984052777E-1,1.912762642E0,1.221476173E1,1.240386546E1
8.814190820E-1,-1.256830096E0,1.860120535E0,1.236311626E1,1.256528209E1
8.838941340E-1,-1.400399446E0,1.747657895E0,1.224108219E1,1.244425650E1
8.863695510E-1,-1.596910000E0,1.558624864E0,1.206640625E1,1.227100619E1
8.888450200E-1,-1.821835399E0,1.362114310E0,1.198714447E1,1.220106848E1
8.913202800E-1,-2.056631088E0,1.208973646E0,1.199671555E1,1.223162019E1
8.937951760E-1,-2.312663078E0,1.115653515E0,1.212144089E1,1.239041656E1
8.962699160E-1,-2.533101797E0,1.043868899E0,1.226740360E1,1.256962442E1
8.987448110E-1,-2.643171787E0,1.019940615E0,1.241815090E1,1.273723313E1
9.012199160E-1,-2.681456804E0,1.060618639E0,1.252822113E1,1.285579430E1
9.036950200E-1,-2.645564556E0,1.144367456E0,1.260718441E1,1.293250507E1
9.061700720E-1,-2.549851656E0,1.259222865E0,1.258804131E1,1.290527681E1
9.086453840E-1,-2.384447813E0,1.424626827E0,1.246600819E1,1.277170752E1
9.111205410E-1,-2.185843468E0,1.572981834E0,1.225783253E1,1.255016501E1
9.135955410E-1,-1.977667928E0,1.745265007E0,1.198475170E1,1.227156851E1
9.160707490E-1,-1.747657895E0,1.907976985E0,1.165454197E1,1.193830109E1
9.185462180E-1,-1.525125384E0,2.051845312E0,1.129771233E1,1.158336654E1
9.210217380E-1,-1.364507079E0,2.197807550E0,1.091456127E1,1.121694635E1
9.234971030E-1,-1.208973646E0,2.305484533E0,1.051256752E1,1.083009474E1
9.259720510E-1,-1.132403374E0,2.401197433E0,1.010788059E1,1.045070986E1
9.284468950E-1,-1.096511006E0,2.465803623E0,9.736694336E0,1.010374883E1
9.309221550E-1,-1.220937729E0,2.322234392E0,9.363413811E0,9.724041326E0
9.333974160E-1,-1.429412484E0,1.931905150E0,8.970691681E0,9.287022493E0
9.358723110E-1,-1.494018674E0,1.647159338E0,8.654540062E0,8.935675093E0
9.383472070E-1,-1.484447360E0,1.515554070E0,8.499007225E0,8.759772367E0
9.408218950E-1,-1.438983679E0,1.489233017E0,8.515756607E0,8.763937448E0
9.432961130E-1,-1.369292736E0,1.558624864E0,8.673683167E0,8.918354878E0
9.457708010E-1,-1.350150228E0,1.721336842E0,8.951549530E0,9.214995667E0
9.482463220E-1,-1.381256819E0,1.922333837E0,9.291629791E0,9.588410815E0
9.507221030E-1,-1.529910922E0,2.085345030E0,9.681659698E0,1.002116889E1
9.531978840E-1,-1.685444474E0,2.193022013E0,1.000020409E1,1.037565181E1
9.556734050E-1,-1.795514345E0,2.283949137E0,1.022991467E1,1.063444636E1
9.581486660E-1,-1.826620936E0,2.331805706E0,1.038814068E1,1.080219092E1
9.606237700E-1,-1.807478428E0,2.346162558E0,1.056760216E1,1.097477437E1
9.630988220E-1,-1.769193292E0,2.386840582E0,1.080209827E1,1.120323078E1
9.655741860E-1,-1.716551185E0,2.446661234E0,1.110628605E1,1.150140378E1
9.680497070E-1,-1.630409479E0,2.537887573E0,1.143171024E1,1.182299063E1
9.705251240E-1,-1.434198022E0,2.578565598E0,1.169282722E1,1.205935873E1
9.730003320E-1,-1.225723386E0,2.583351135E0,1.186989594E1,1.220944431E1
9.754753320E-1,-1.027119160E0,2.537887573E0,1.199671555E1,1.230516278E1
9.779500720E-1,-8.548358679E-1,2.415554523E0,1.209033489E1,1.235887721E1
9.804248630E-1,-7.013961077E-1,2.224128723E0,1.215972614E1,1.238134261E1
9.828996550E-1,-5.602195859E-1,2.001596212E0,1.217886925E1,1.235496214E1
9.853743430E-1,-4.286143482E-1,1.752443433E0,1.216690540E1,1.229993314E1
9.878488740E-1,-2.922234535E-1,1.494018674E0,1.216211891E1,1.225702341E1
9.903234050E-1,-1.651047617E-1,1.275972724E0,1.214776230E1,1.221570689E1
9.927984050E-1,-5.742774159E-2,1.096511006E0,1.221236897E1,1.226163081E1
9.952732490E-1,4.546362907E-2,9.792626500E-1,1.233200932E1,1.237091250E1
9.977479360E-1,1.172483116E-1,9.002995491E-1,1.246122169E1,1.249425198E1
1.000222832E0,1.555334777E-1,8.452646136E-1,1.258564854E1,1.261495985E1
1.002697780E0,1.555334777E-1,7.827520967E-1,1.266730404E1,1.269241833E1
1.005173197E0,1.148554832E-1,6.774678826E-1,1.271994591E1,1.273849200E1
1.007648613E0,-6.939185411E-2,3.903291821E-1,1.254257774E1,1.254884172E1
1.010123666E0,-2.679961324E-1,1.435693651E-1,1.237268734E1,1.237642218E1
1.012598666E0,-4.405784607E-1,1.316052526E-1,1.249472141E1,1.250317930E1
1.015074030E0,-5.937191248E-1,2.608176768E-1,1.279173088E1,1.280815784E1
1.017549603E0,-6.942176819E-1,4.884349108E-1,1.308844090E1,1.311593656E1
1.020025072E0,-7.779664397E-1,7.348956466E-1,1.328495121E1,1.332798680E1
1.022500593E0,-8.811569214E-1,9.672985673E-1,1.337348557E1,1.343734424E1
1.024975957E0,-1.027119160E0,1.039083242E0,1.330648708E1,1.338645832E1
1.027450957E0,-1.218544960E0,9.553344250E-1,1.305733395E1,1.314882069E1
1.029926061E0,-1.235294700E0,7.037889361E-1,1.274387455E1,1.282293299E1
1.032401166E0,-7.253243923E-1,1.770688742E-1,1.220279694E1,1.222561663E1
1.034876322E0,-5.530411601E-1,-1.004985496E-1,1.204457188E1,1.205768080E1
1.037351791E0,-7.636095285E-1,-1.363908947E-1,1.225304699E1,1.227757560E1
1.039827207E0,-9.194421172E-1,-3.828516230E-2,1.245404339E1,1.248799569E1
1.042302832E0,-9.433703423E-1,-1.914258115E-2,1.248275757E1,1.251836853E1
1.044778405E0,-9.625129104E-1,-1.196411345E-2,1.248993587E1,1.252697379E1
1.047253926E0,-1.063011408E0,6.939185411E-2,1.249472141E1,1.254005070E1
1.049729499E0,-1.307079315E0,1.004985496E-1,1.247318649E1,1.254188732E1
1.052204343E0,-1.319043517E0,4.214358926E-1,1.230329609E1,1.238097648E1
1.054678822E0,-1.419841170E0,6.966105103E-1,1.213340569E1,1.223604302E1
1.057153666E0,-1.608874083E0,8.691928387E-1,1.205653572E1,1.219442601E1
1.059628509E0,-1.795514345E0,1.019940615E0,1.202542973E1,1.220143888E1
1.062103509E0,-1.922333837E0,1.287936807E0,1.199193001E1,1.221312957E1
1.064578666E0,-1.994417667E0,1.699801445E0,1.188903809E1,1.217440978E1
1.067053561E0,-1.879263043E0,2.303091764E0,1.169761276E1,1.206938298E1
1.069528666E0,-1.795514345E0,2.743670225E0,1.146281719E1,1.192257422E1
1.072003978E0,-1.900798440E0,3.124428272E0,1.133360481E1,1.190905894E1
1.074478874E0,-1.994417667E0,3.330210924E0,1.120917797E1,1.186227960E1
1.076953405E0,-1.936690807E0,3.602992773E0,1.100339508E1,1.173912397E1
1.079428093E0,-1.685444474E0,4.117748737E0,1.062502956E1,1.151902040E1
1.081902884E0,-1.374078393E0,4.539184570E0,1.013898754E1,1.119336216E1
1.084377468E0,-1.118046403E0,4.776372910E0,9.770194054E0,1.093254123E1
1.086851947E0,-1.017547846E0,4.941477776E0,9.526125908E0,1.077964197E1
1.089326530E0,-9.337990284E-1,5.032404900E0,9.250652313E0,1.057221112E1
1.091800957E0,-8.377870321E-1,5.006083965E0,8.930013657E0,1.027170423E1
1.094275593E0,-7.683951855E-1,4.982155800E0,8.532505989E0,9.910396865E0
1.096750541E0,-8.066803217E-1,4.881657124E0,8.161619186E0,9.544282957E0
1.099225645E0,-8.210372925E-1,4.706682205E0,7.761718273E0,9.114342004E0
1.101700905E0,-8.548358679E-1,4.500899315E0,7.371389389E0,8.679067953E0
1.104176270E0,-8.931210637E-1,4.345366001E0,7.012166977E0,8.297611502E0
1.106651374E0,-9.792626500E-1,4.223331928E0,6.265306950E0,7.619026125E0
1.109126270E0,-1.340578914E0,4.148855209E0,4.103391647E0,5.987317795E0
1.111601061E0,-1.980060697E0,4.115355968E0,6.702894568E-1,4.615851283E0
1.114075853E0,-2.726920605E0,4.266402721E0,-2.566601276E0,5.676771114E0
1.116550749E0,-3.368496180E0,4.342973232E0,-4.512863636E0,7.111548439E0
1.119025697E0,-3.605385542E0,4.129712582E0,-4.170390606E0,6.888068577E0
1.121500697E0,-3.488137245E0,3.775574923E0,-2.396411896E0,5.671407005E0
1.123975593E0,-3.373281717E0,3.457030535E0,-2.703889608E-1,4.837685382E0
1.126450228E0,-3.251247883E0,3.337389469E0,1.546660781E0,4.909270907E0
1.128924863E0,-3.124428272E0,3.430709362E0,3.016452074E0,5.534510084E0
1.131399603E0,-2.980559587E0,3.622135162E0,4.086641788E0,6.221273157E0
1.133874343E0,-2.841775894E0,3.866502285E0,4.797908306E0,6.785680089E0
1.136349030E0,-2.825026274E0,4.122534275E0,5.358128071E0,7.327045702E0
1.138823666E0,-2.906382322E0,4.350151539E0,5.841478348E0,7.841794814E0
1.141298405E0,-2.978166819E0,4.500899315E0,6.334698677E0,8.322017758E0
1.143773405E0,-3.150749207E0,4.603790760E0,6.827919483E0,8.817176101E0
1.146248509E0,-3.437887907E0,4.642076015E0,7.330711365E0,9.333127670E0
1.148723666E0,-3.751646757E0,4.618147850E0,7.838288784E0,9.840778120E0
1.151198926E0,-4.084249020E0,4.541577339E0,8.343473434E0,1.034024002E1
1.153673978E0,-4.453042984E0,4.455435753E0,8.863015175E0,1.087352462E1
1.156148718E0,-4.797908306E0,4.290330887E0,9.334700584E0,1.133858449E1
1.158623613E0,-5.120939732E0,4.093820572E0,9.748658180E0,1.174817973E1
1.161098770E0,-5.441876888E0,3.878466368E0,1.014138031E1,1.214512742E1
1.163573926E0,-5.772086620E0,3.622135162E0,1.047667503E1,1.249790250E1
1.166048613E0,-5.982954025E0,3.373281717E0,1.077099228E1,1.277454669E1
1.168523197E0,-6.167201042E0,3.165106058E0,1.100818062E1,1.300893176E1
1.170998197E0,-6.289235115E0,2.997309446E0,1.117567825E1,1.316943912E1
1.173473613E0,-6.351448536E0,2.875275612E0,1.124267673E1,1.322897912E1
1.175948978E0,-6.404090881E0,2.746062994E0,1.124746323E1,1.323097393E1
1.178424238E0,-6.451947212E0,2.602493763E0,1.113978577E1,1.313375131E1
1.180899291E0,-6.435197353E0,2.465803623E0,1.092652512E1,1.291823918E1
1.183374186E0,-6.310770512E0,2.341377020E0,1.066092205E1,1.260805813E1
1.185849186E0,-6.085845470E0,2.214557409E0,1.038814068E1,1.224153775E1
1.188323978E0,-5.796014786E0,2.099701881E0,1.014138031E1,1.186802974E1
1.190798561E0,-5.417948723E0,1.996810555E0,9.916455269E0,1.147508195E1
1.193273249E0,-5.030012131E0,1.910369754E0,9.741479874E0,1.112865512E1
1.195748405E0,-4.685146809E0,1.857727647E0,9.590732574E0,1.083438526E1
1.198223666E0,-4.374079704E0,1.838585138E0,9.497411728E0,1.061667547E1
1.200698457E0,-4.108177185E0,1.862513304E0,9.430413246E0,1.045364863E1
1.203172988E0,-3.943072557E0,1.917548299E0,9.368199348E0,1.034349901E1
1.205647832E0,-3.823431492E0,2.023131609E0,9.322735786E0,1.027740689E1
1.208122780E0,-3.770789385E0,2.181057930E0,9.272486687E0,1.024474869E1
1.210597832E0,-3.758825302E0,2.334198475E0,9.248259544E0,1.025219756E1
1.213072936E0,-3.751646757E0,2.494517565E0,9.233902931E0,1.027435811E1
1.215548041E0,-3.749253988E0,2.631207705E0,9.190832138E0,1.026896075E1
1.218022988E0,-3.746861219E0,2.781955481E0,9.154939651E0,1.027575619E1
1.220497884E0,-3.696611881E0,2.947060108E0,9.116654396E0,1.026954186E1
1.222973197E0,-3.629313707E0,3.088535786E0,9.061619759E0,1.023835553E1
1.225448666E0,-3.519243956E0,3.224926710E0,9.013762474E0,1.019966393E1
1.227923509E0,-3.409173965E0,3.356531858E0,8.939585686E0,1.013927835E1
1.230398301E0,-3.291925669E0,3.447459221E0,8.855836868E0,1.005721613E1
1.232873822E0,-3.179463148E0,3.559921980E0,8.752944946E0,9.969758054E0
1.235349343E0,-3.059522867E0,3.634099483E0,8.644968987E0,9.864220598E0
1.237824499E0,-2.951845884E0,3.689433336E0,8.501399994E0,9.726207602E0
1.240299291E0,-2.865704298E0,3.739682674E0,8.360222816E0,9.596395843E0
1.242773874E0,-2.774776936E0,3.763610840E0,8.211868286E0,9.449811339E0
1.245248874E0,-2.712563515E0,3.775574923E0,8.077570915E0,9.319877612E0
1.247724082E0,-2.674278498E0,3.761218071E0,7.972286701E0,9.211725251E0
1.250199134E0,-2.633600473E0,3.749253988E0,7.893323898E0,9.126736497E0
1.252673874E0,-2.621636391E0,3.722932816E0,7.821538925E0,9.050396526E0
1.255148718E0,-2.659921408E0,3.670290947E0,7.694719315E0,8.930561173E0
1.257623613E0,-2.724527597E0,3.607778311E0,7.548458099E0,8.798768928E0
1.260098353E0,-2.817847729E0,3.540779352E0,7.404888630E0,8.678119604E0
1.262572936E0,-2.920739174E0,3.452244759E0,7.294818878E0,8.582720644E0
1.265047572E0,-3.009273529E0,3.370888948E0,7.211070061E0,8.509885481E0
1.267522624E0,-3.083451033E0,3.315854073E0,7.177570820E0,8.486464598E0
1.269997416E0,-3.133999348E0,3.287140131E0,7.230212688E0,8.538338110E0
1.272472103E0,-3.145963669E0,3.263211966E0,7.364210606E0,8.647383279E0
1.274947155E0,-3.095714331E0,3.272783279E0,7.524529934E0,8.770011878E0
1.277422103E0,-2.978166819E0,3.323032379E0,7.706683636E0,8.905335168E0
1.279897207E0,-2.817847729E0,3.382853031E0,7.914859295E0,9.056983941E0
1.282372311E0,-2.650350094E0,3.459423304E0,8.123034477E0,9.218224033E0
1.284847416E0,-2.484946251E0,3.552743435E0,8.331509590E0,9.392070902E0
1.287322572E0,-2.350948334E0,3.663112402E0,8.510971069E0,9.559392192E0
1.289797624E0,-2.250449657E0,3.766003847E0,8.697610855E0,9.741444617E0
1.292272832E0,-2.190629244E0,3.840181351E0,8.872586250E0,9.913053821E0
1.294747676E0,-2.159522533E0,3.950251102E0,9.013762474E0,1.007551166E1
1.297222520E0,-2.173879385E0,4.043570995E0,9.119047165E0,1.020946811E1
1.299697520E0,-2.169093609E0,4.132105827E0,9.193224907E0,1.030992967E1
1.302172311E0,-2.178664923E0,4.228117466E0,9.205188751E0,1.036142163E1
1.304647520E0,-2.204986095E0,4.350151539E0,9.166903496E0,1.038353995E1
1.307122884E0,-2.245664120E0,4.443471432E0,9.104690552E0,1.037703405E1
1.309598041E0,-2.274377823E0,4.543970108E0,9.040083885E0,1.037032186E1
1.312073093E0,-2.348555326E0,4.613361835E0,9.028120041E0,1.040700586E1
1.314548561E0,-2.398804665E0,4.701896667E0,9.085547447E0,1.050758148E1
1.317024030E0,-2.410768747E0,4.773980141E0,9.159725189E0,1.060675529E1
1.319499447E0,-2.338984251E0,4.840979099E0,9.248259544E0,1.069748711E1
1.321974863E0,-2.238485575E0,4.884049892E0,9.332307816E0,1.076832068E1
1.324449707E0,-2.104487419E0,4.907978535E0,9.430413246E0,1.083742657E1
1.326924291E0,-1.929512382E0,4.896014214E0,9.540482521E0,1.089563123E1
1.329399238E0,-1.728515267E0,4.876871586E0,9.636196136E0,1.093745480E1
1.331874134E0,-1.503589988E0,4.833800793E0,9.719944954E0,1.095918532E1
1.334348770E0,-1.311864972E0,4.773980141E0,9.810872078E0,1.098931695E1
1.336823509E0,-1.153938770E0,4.685146809E0,9.911669731E0,1.102376397E1
1.339298561E0,-1.017547846E0,4.601397991E0,1.001934624E1,1.107228821E1
1.341773926E0,-8.811569214E-1,4.536791801E0,1.010070229E1,1.110779474E1
1.344249291E0,-7.253243923E-1,4.479363918E0,1.012223816E1,1.109281308E1
1.346724655E0,-5.913262963E-1,4.431507587E0,1.011266708E1,1.105685135E1
1.349200124E0,-4.740779996E-1,4.417150497E0,1.007438183E1,1.101041042E1
1.351675488E0,-4.094717801E-1,4.383651257E0,9.990633011E0,1.091772932E1
1.354150697E0,-3.975076675E-1,4.395615101E0,9.902098656E0,1.084117163E1
1.356625541E0,-4.477569461E-1,4.469792843E0,9.861420631E0,1.083638091E1
1.359100384E0,-5.267201066E-1,4.553541660E0,9.820742607E0,1.083785777E1
1.361575280E0,-6.343970895E-1,4.622933388E0,9.760622978E0,1.081867523E1
1.364050072E0,-7.325028181E-1,4.692325115E0,9.715159416E0,1.081382439E1
1.366524707E0,-8.524430394E-1,4.766502857E0,9.700801849E0,1.084212918E1
1.368999759E0,-9.290133715E-1,4.790730000E0,9.700801849E0,1.085908451E1
1.371475332E0,-1.012762189E0,4.824229717E0,9.707980156E0,1.088778023E1
1.373950749E0,-1.149153113E0,4.829015255E0,9.700801849E0,1.089704078E1
1.376426009E0,-1.302293777E0,4.819443703E0,9.698409081E0,1.090789372E1
1.378901061E0,-1.431805253E0,4.793122768E0,9.681659698E0,1.089764317E1
1.381376322E0,-1.630409479E0,4.742574692E0,9.631410599E0,1.085883603E1
1.383851738E0,-1.800299883E0,4.677968502E0,9.545269012E0,1.078130927E1
1.386326843E0,-1.953440547E0,4.606183529E0,9.399306297E0,1.064799585E1
1.388801634E0,-2.118844509E0,4.517649174E0,9.202795982E0,1.046852951E1
1.391276426E0,-2.281556368E0,4.431507587E0,8.985049248E0,1.027496321E1
1.393751582E0,-2.398804665E0,4.338187218E0,8.752944946E0,1.005923344E1
1.396226791E0,-2.511267424E0,4.290330887E0,8.518149376E0,9.862670631E0
1.398701791E0,-2.592922449E0,4.232903481E0,8.278866768E0,9.652997134E0
1.401176843E0,-2.633600473E0,4.203890324E0,8.008178711E0,9.420163033E0
1.403652311E0,-2.647957325E0,4.208974838E0,7.709076405E0,9.173712781E0
1.406127936E0,-2.643171787E0,4.228117466E0,7.409674644E0,8.931215636E0
1.408603561E0,-2.619243383E0,4.218546391E0,7.134500027E0,8.692390936E0
1.411078926E0,-2.614457846E0,4.218546391E0,6.899703979E0,8.499261055E0
1.413553926E0,-2.549851656E0,4.223331928E0,6.748956203E0,8.359825709E0
1.416028978E0,-2.480160713E0,4.225724697E0,6.701099873E0,8.301366507E0
1.418504030E0,-2.362912416E0,4.175176620E0,6.777669907E0,8.303750012E0
1.420979082E0,-2.236092806E0,4.132105827E0,7.012166977E0,8.440669127E0
1.423454134E0,-2.114058733E0,4.091427803E0,7.347461224E0,8.671459636E0
1.425928718E0,-1.951047778E0,4.033999920E0,7.711469173E0,8.918884437E0
1.428403613E0,-1.764407635E0,4.019642830E0,8.087141991E0,9.201767676E0
1.430878874E0,-1.587338686E0,3.969393730E0,8.388936996E0,9.415412610E0
1.433354238E0,-1.371685624E0,3.868895054E0,8.613862038E0,9.541933221E0
1.435829551E0,-7.636095285E-1,3.267997503E0,8.226224899E0,8.884463028E0
1.438304603E0,-2.898306549E-1,3.153141975E0,7.969893932E0,8.575868202E0
1.440779291E0,-2.584248483E-1,3.425923824E0,8.637790680E0,9.295975757E0
1.443253666E0,-5.338985324E-1,3.799503326E0,9.882955551E0,1.060160759E1
1.445728301E0,-7.779664397E-1,4.079463482E0,1.078774166E1,1.155952526E1
1.448203093E0,-8.377870321E-1,4.136891365E0,1.090020466E1,1.168889297E1
1.450677572E0,-8.476574421E-1,4.081856251E0,1.060110188E1,1.139137545E1
1.453151895E0,-8.452646136E-1,4.000500202E0,1.029212856E1,1.107458281E1
1.455626686E0,-9.529415965E-1,4.074677944E0,1.029452133E1,1.111252750E1
1.458101999E0,-1.137188911E0,4.182354927E0,1.057238770E1,1.142631493E1
1.460577103E0,-1.326221943E0,4.213760853E0,1.075424194E1,1.162619305E1
1.463051895E0,-1.484447360E0,4.175176620E0,1.065374374E1,1.153854148E1
1.465526947E0,-1.604088426E0,4.060320854E0,1.041446114E1,1.129248891E1
1.468002155E0,-1.733300924E0,3.986143351E0,1.023948669E1,1.112388236E1
1.470477416E0,-1.879263043E0,3.943072557E0,1.019880867E1,1.109482533E1
1.472952936E0,-2.049452543E0,3.914358854E0,1.027298546E1,1.118287491E1
1.475428041E0,-2.226521492E0,3.900001764E0,1.040967560E1,1.133705243E1
1.477903249E0,-2.331805706E0,3.821038723E0,1.040489006E1,1.132693215E1
1.480378353E0,-2.319841623E0,3.675076485E0,1.022034359E1,1.110600177E1
1.482853093E0,-2.236092806E0,3.531208038E0,9.935597420E0,1.077894417E1
1.485327832E0,-2.126022816E0,3.459423304E0,9.719944954E0,1.053398844E1
1.487802884E0,-2.027917147E0,3.428316593E0,9.652945518E0,1.044246905E1
1.490277936E0,-1.980060697E0,3.428316593E0,9.686445236E0,1.046428289E1
1.492752780E0,-1.939083695E0,3.399602890E0,9.760622978E0,1.051604043E1
1.495227884E0,-1.891227245E0,3.392424345E0,9.782157898E0,1.052501290E1
1.497702884E0,-1.805085540E0,3.366103172E0,9.724730492E0,1.044793604E1
1.500177832E0,-1.702194214E0,3.323032379E0,9.621838570E0,1.032084235E1
1.502653145E0,-1.580160260E0,3.301496983E0,9.487840652E0,1.016936129E1
1.505128301E0,-1.489233017E0,3.301496983E0,9.313164711E0,9.992633999E0
1.507603457E0,-1.419841170E0,3.334996462E0,9.147761345E0,9.839699588E0
1.510078770E0,-1.345364571E0,3.346960783E0,8.956335068E0,9.655469443E0
1.512553926E0,-1.299900889E0,3.334996462E0,8.745766640E0,9.449887716E0
1.515029030E0,-1.247258782E0,3.327818155E0,8.510971069E0,9.223158715E0
1.517503874E0,-1.211366415E0,3.308675528E0,8.278866768E0,8.997465048E0
1.519978926E0,-1.180259824E0,3.299104214E0,8.067999840E0,8.796006098E0
1.522454082E0,-1.185045362E0,3.308675528E0,7.869395256E0,8.618529338E0
1.524929343E0,-1.208973646E0,3.337389469E0,7.716254711E0,8.493548876E0
1.527404447E0,-1.225723386E0,3.363710403E0,7.589435101E0,8.391452237E0
1.529879291E0,-1.256830096E0,3.399602890E0,7.462316513E0,8.295968264E0
1.532354395E0,-1.275972724E0,3.418745279E0,7.323532581E0,8.182301336E0
1.534829655E0,-1.287936807E0,3.416352510E0,7.199106216E0,8.072011894E0
1.537304395E0,-1.287936807E0,3.442673683E0,7.067500591E0,7.966200344E0
1.539779134E0,-1.285543919E0,3.452244759E0,6.918846607E0,7.838434500E0
1.542253978E0,-1.271187067E0,3.459423304E0,6.756134510E0,7.696030124E0
1.544728666E0,-1.297508121E0,3.464209080E0,6.653243542E0,7.612484581E0
1.547203301E0,-1.352542996E0,3.488137245E0,6.617351055E0,7.601697770E0
1.549678093E0,-1.431805253E0,3.535993576E0,6.655636311E0,7.671428260E0
1.552153197E0,-1.505982757E0,3.579064369E0,6.789634228E0,7.821561147E0
1.554628405E0,-1.582553029E0,3.598206997E0,6.993024349E0,8.022091824E0
1.557103509E0,-1.632802367E0,3.600599766E0,7.227819920E0,8.238430860E0
1.559578457E0,-1.656730533E0,3.588635683E0,7.476673603E0,8.457169165E0
1.562053093E0,-1.623231053E0,3.593421459E0,7.682755470E0,8.635524793E0
1.564527624E0,-1.572981834E0,3.588635683E0,7.912466049E0,8.829478858E0
1.567002259E0,-1.546660781E0,3.634099483E0,8.223832130E0,9.123061632E0
1.569476999E0,-1.482054472E0,3.710968733E0,8.688039780E0,9.562939381E0
1.571952051E0,-1.302293777E0,3.844966888E0,9.255437851E0,1.010657555E1
1.574427259E0,-1.063011408E0,3.959822416E0,9.796515465E0,1.061988239E1
1.576902520E0,-8.234301209E-1,3.998107433E0,1.029691410E1,1.107652203E1
1.579377624E0,-5.913262963E-1,3.978965044E0,1.074227810E1,1.147076146E1
1.581852572E0,-4.142574072E-1,3.955036640E0,1.114457130E1,1.183281005E1
1.584327311E0,-2.297109663E-1,3.902394533E0,1.146281719E1,1.211105397E1
1.586801791E0,-7.417750359E-2,3.821038723E0,1.168564892E1,1.229472366E1
1.589276478E0,2.392822690E-2,3.751646757E0,1.184118176E1,1.242131279E1
1.591751061E0,5.264209956E-2,3.691826344E0,1.192253780E1,1.248115622E1
1.594225593E0,9.571290575E-3,3.672683716E0,1.198953724E1,1.253944578E1
1.596700541E0,-6.699903309E-2,3.655933857E0,1.198475170E1,1.253014823E1
1.599175801E0,-1.914258152E-1,3.641277790E0,1.192253780E1,1.246765637E1
1.601650853E0,-3.568296731E-1,3.605385542E0,1.175743294E1,1.230298182E1
1.604125645E0,-5.267201066E-1,3.571886063E0,1.153250790E1,1.208447527E1
1.606600488E0,-6.559324861E-1,3.531208038E0,1.123071289E1,1.179103853E1
1.609075853E0,-7.779664397E-1,3.500101328E0,1.089541912E1,1.147022663E1
1.611551270E0,-8.835497499E-1,3.454637766E0,1.051496029E1,1.110313344E1
1.614026634E0,-9.529415965E-1,3.392424345E0,1.006480980E1,1.066381906E1
1.616501843E0,-1.041476011E0,3.342175007E0,9.597910881E0,1.021639366E1
1.618976686E0,-1.134796143E0,3.272783279E0,9.102297783E0,9.739132282E0
1.621451530E0,-1.218544960E0,3.239283562E0,8.609076500E0,9.278685682E0
1.623926686E0,-1.304686546E0,3.222533941E0,8.147261620E0,8.858036119E0
1.626402416E0,-1.402792215E0,3.210569859E0,7.730611801E0,8.487516930E0
1.628878145E0,-1.515554070E0,3.215355396E0,7.357032299E0,8.170761208E0
1.631353613E0,-1.604088426E0,3.210569859E0,7.048357964E0,7.909501152E0
1.633829134E0,-1.706979871E0,3.229712248E0,6.782455921E0,7.703669892E0
1.636304343E0,-1.812264085E0,3.277568817E0,6.595815659E0,7.584955021E0
1.638779238E0,-1.905584097E0,3.337389469E0,6.480959892E0,7.534736913E0
1.641254134E0,-1.975275040E0,3.380460262E0,6.420840263E0,7.520399774E0
1.643728718E0,-2.018345833E0,3.421138287E0,6.406483650E0,7.537966559E0
1.646202988E0,-2.037488461E0,3.461816072E0,6.420840263E0,7.573818022E0
1.648677311E0,-2.027917147E0,3.485744476E0,6.464210510E0,7.618981561E0
1.651151843E0,-2.037488461E0,3.471387386E0,6.516852379E0,7.659716349E0
1.653626634E0,-2.047059774E0,3.454637766E0,6.591030121E0,7.717943629E0
1.656101426E0,-2.020738840E0,3.440280676E0,6.665207386E0,7.768134016E0
1.658575957E0,-2.001596212E0,3.423531055E0,6.777669907E0,7.852627691E0
1.661050749E0,-1.963011861E0,3.390031576E0,6.887740135E0,7.923805514E0
1.663525645E0,-1.927119493E0,3.344567776E0,6.985845566E0,7.981350852E0
1.666000436E0,-1.879263043E0,3.315854073E0,7.086643219E0,8.046553916E0
1.668475280E0,-1.826620936E0,3.294318676E0,7.201498985E0,8.127156158E0
1.670950541E0,-1.769193292E0,3.253640652E0,7.316354275E0,8.200320864E0
1.673426113E0,-1.695015788E0,3.224926710E0,7.428816795E0,8.274089061E0
1.675901270E0,-1.637588024E0,3.239283562E0,7.534101009E0,8.362854211E0
1.678376113E0,-1.575374603E0,3.236890793E0,7.625327587E0,8.432371431E0
1.680850905E0,-1.529910922E0,3.277568817E0,7.735397339E0,8.539289008E0
1.683325593E0,-1.486840129E0,3.311068296E0,7.867002487E0,8.663924917E0
1.685800384E0,-1.465304732E0,3.342175007E0,7.979465485E0,8.774344486E0
1.688275072E0,-1.441376567E0,3.378067255E0,8.101499557E0,8.895122251E0
1.690749759E0,-1.405484200E0,3.440280676E0,8.247760773E0,9.046351459E0
1.693224447E0,-1.395613790E0,3.502494097E0,8.396115303E0,9.203801113E0
1.695699447E0,-1.364507079E0,3.559921980E0,8.592327118E0,9.400160072E0
1.698174759E0,-1.319043517E0,3.624528170E0,8.800801277E0,9.608911664E0
1.700649603E0,-1.247258782E0,3.684647799E0,8.989834785E0,9.795377141E0
1.703124343E0,-1.201795220E0,3.722932816E0,9.138189316E0,9.940374463E0
1.705599238E0,-1.146760225E0,3.761218071E0,9.257830620E0,1.005829251E1
1.708073978E0,-1.146760225E0,3.768396616E0,9.353842735E0,1.014939634E1
1.710548666E0,-1.113260746E0,3.758825302E0,9.442377090E0,1.022382523E1
1.713023770E0,-1.115653515E0,3.744468451E0,9.506983757E0,1.027854401E1
1.715499343E0,-1.132403374E0,3.730111361E0,9.538089752E0,1.030394217E1
1.717974863E0,-1.163509965E0,3.720540047E0,9.559625626E0,1.032388569E1
1.720450124E0,-1.213759303E0,3.703790426E0,9.552447319E0,1.031700174E1
1.722925176E0,-1.280758262E0,3.679862022E0,9.526125908E0,1.029217183E1
1.725400124E0,-1.342971683E0,3.663112402E0,9.478269577E0,1.024985656E1
1.727875020E0,-1.441376567E0,3.617349625E0,9.437591553E0,1.020935449E1
1.730349916E0,-1.517946839E0,3.591028690E0,9.370592117E0,1.014926826E1
1.732824916E0,-1.611266971E0,3.555136204E0,9.308379173E0,1.009361667E1
1.735299603E0,-1.687837243E0,3.545564890E0,9.248259544E0,1.004739417E1
1.737774082E0,-1.762014747E0,3.514458179E0,9.202795982E0,1.000737559E1
1.740249030E0,-1.826620936E0,3.485744476E0,9.200403214E0,1.000671664E1
1.742723978E0,-1.922333837E0,3.473780155E0,9.219545364E0,1.003805423E1
1.745199082E0,-1.968096614E0,3.461816072E0,9.241081238E0,1.006256216E1
1.747674291E0,-1.984846354E0,3.461816072E0,9.274879456E0,1.009688935E1
1.750149238E0,-1.984846354E0,3.476173162E0,9.267701149E0,1.009523053E1
1.752624082E0,-1.980060697E0,3.485744476E0,9.270093918E0,1.009978694E1
1.755099134E0,-1.953440547E0,3.483351469E0,9.279664993E0,1.010256650E1
1.757574551E0,-1.934298038E0,3.468994617E0,9.253045082E0,1.006947247E1
1.760049707E0,-1.915155411E0,3.447459221E0,9.214759827E0,1.002320278E1
1.762524707E0,-1.917548299E0,3.454637766E0,9.193224907E0,1.000634288E1
1.764999447E0,-1.927119493E0,3.471387386E0,9.123832703E0,9.950308694E0
1.767474186E0,-1.931905150E0,3.464209080E0,9.035298347E0,9.867604486E0
1.769948718E0,-1.970489502E0,3.445066452E0,8.930013657E0,9.772228796E0
1.772423093E0,-1.984846354E0,3.447459221E0,8.831908226E0,9.686443777E0
1.774897468E0,-2.018345833E0,3.454637766E0,8.726624489E0,9.600115466E0
1.777371582E0,-2.061416626E0,3.468994617E0,8.654540062E0,9.549053662E0
1.779845957E0,-2.075773716E0,3.480958700E0,8.604290962E0,9.511032171E0
1.782320645E0,-2.109273195E0,3.485744476E0,8.575576782E0,9.494206924E0
1.784795436E0,-2.111665964E0,3.478565931E0,8.561220169E0,9.479137348E0
1.787270020E0,-2.094916344E0,3.497708559E0,8.594719887E0,9.512720409E0
1.789744499E0,-2.070987940E0,3.507279873E0,8.621041298E0,9.534797125E0
1.792219134E0,-2.027917147E0,3.524029493E0,8.671290398E0,9.577186903E0
1.794694291E0,-1.970489502E0,3.550350666E0,8.726624489E0,9.625060711E0
1.797169759E0,-1.907976985E0,3.567100286E0,8.779266357E0,9.666441869E0
1.799644759E0,-1.867298961E0,3.581457376E0,8.822337151E0,9.702951878E0
1.802119343E0,-1.826620936E0,3.598206997E0,8.846264839E0,9.723170226E0
1.804594186E0,-1.790728688E0,3.626920938E0,8.851051331E0,9.731514496E0
1.807069238E0,-1.776371717E0,3.612564087E0,8.867800713E0,9.738788695E0
1.809544082E0,-1.764407635E0,3.636492252E0,8.860622406E0,9.738985554E0
1.812019238E0,-1.778764486E0,3.624528170E0,8.848658562E0,9.726251379E0
1.814494551E0,-1.805085540E0,3.631706476E0,8.853444099E0,9.738126008E0
1.816969551E0,-1.826620936E0,3.624528170E0,8.891729355E0,9.774282553E0
1.819444499E0,-1.862513304E0,3.631706476E0,8.915657043E0,9.805467263E0
1.821919916E0,-1.840977907E0,3.641277790E0,8.980263710E0,9.863733568E0
1.824395645E0,-1.817049742E0,3.643670797E0,9.059226990E0,9.932149832E0
1.826871009E0,-1.788335800E0,3.679862022E0,9.164510727E0,1.003632335E1
1.829346166E0,-1.745265007E0,3.751646757E0,9.277272224E0,1.015817815E1
1.831821322E0,-1.716551185E0,3.799503326E0,9.361021042E0,1.024751133E1
1.834296843E0,-1.678265929E0,3.840181351E0,9.435198784E0,1.032407601E1
1.836772468E0,-1.639980793E0,3.852145433E0,9.502198219E0,1.038365699E1
1.839247572E0,-1.616052628E0,3.871287823E0,9.530911446E0,1.041329768E1
1.841722676E0,-1.572981834E0,3.888037682E0,9.564411163E0,1.044361383E1
1.844197728E0,-1.517946839E0,3.888037682E0,9.540482521E0,1.041353957E1
1.846672572E0,-1.491625786E0,3.919144392E0,9.497411728E0,1.038197812E1
1.849147468E0,-1.462911963E0,3.945465326E0,9.471091270E0,1.036380133E1
1.851622520E0,-1.434198022E0,3.971786499E0,9.449555397E0,1.035017435E1
1.854097520E0,-1.407876968E0,3.990929127E0,9.396913528E0,1.030590203E1
1.856572520E0,-1.381256819E0,4.005286217E0,9.341878891E0,1.025772340E1
1.859047572E0,-1.364507079E0,4.022035599E0,9.282057762E0,1.020760727E1
1.861522311E0,-1.338186026E0,4.057928085E0,9.245866776E0,1.018545898E1
1.863997207E0,-1.290329576E0,4.077070713E0,9.219545364E0,1.016304446E1
1.866472155E0,-1.242473125E0,4.120141506E0,9.162117958E0,1.012243602E1
1.868946843E0,-1.194616675E0,4.163212299E0,9.090332985E0,1.006943888E1
1.871421738E0,-1.132403374E0,4.216153622E0,9.020941734E0,1.002176025E1
1.873896582E0,-1.089332461E0,4.266402721E0,8.958727837E0,9.982366545E0
1.876371322E0,-1.024726272E0,4.319045067E0,8.903693199E0,9.948867614E0
1.878846166E0,-9.960124493E-1,4.350151539E0,8.865407944E0,9.925286758E0
1.881320957E0,-9.601200819E-1,4.381258488E0,8.834300995E0,9.907680383E0
1.883795749E0,-9.218349457E-1,4.417150497E0,8.831908226E0,9.917842563E0
1.886270801E0,-8.907282352E-1,4.436293125E0,8.834300995E0,9.925672146E0
1.888746061E0,-8.835497499E-1,4.443471432E0,8.853444099E0,9.945278827E0
1.891220905E0,-8.548358679E-1,4.455435753E0,8.860622406E0,9.954510612E0
1.893695593E0,-8.353942037E-1,4.424329281E0,8.870193481E0,9.947507500E0
1.896170645E0,-8.114659786E-1,4.378865242E0,8.867800713E0,9.923246813E0
1.898645332E0,-7.755736113E-1,4.287938118E0,8.841479301E0,9.856961193E0
1.901119759E0,-7.540382147E-1,4.141676903E0,8.817551613E0,9.770940469E0
1.903594186E0,-8.114659786E-1,4.002892971E0,8.793622971E0,9.695846230E0
1.906068666E0,-8.859425783E-1,3.840181351E0,8.774480820E0,9.618908499E0
1.908543249E0,-9.457631707E-1,3.699004650E0,8.755337715E0,9.551598918E0
1.911018145E0,-1.055832982E0,3.550350666E0,8.736195564E0,9.488987621E0
1.913492936E0,-1.168295622E0,3.440280676E0,8.678468704E0,9.408308288E0
1.915967363E0,-1.321436286E0,3.334996462E0,8.585148811E0,9.304470720E0
1.918441895E0,-1.474876046E0,3.232105255E0,8.472685814E0,9.187391830E0
1.920916686E0,-1.666301847E0,3.186641455E0,8.355437279E0,9.096404659E0
1.923392155E0,-1.876870275E0,3.162713289E0,8.235795975E0,9.019630409E0
1.925867936E0,-2.070987940E0,3.145963669E0,8.132605553E0,8.962441159E0
1.928342988E0,-2.248056889E0,3.105285645E0,8.032107353E0,8.900073440E0
1.930817988E0,-2.413161755E0,3.061915636E0,7.926823139E0,8.833640365E0
1.933293093E0,-2.561815739E0,3.040380239E0,7.838288784E0,8.788946634E0
1.935768093E0,-2.669492722E0,2.997309446E0,7.766504288E0,8.742347749E0
1.938243197E0,-2.753241539E0,2.956631422E0,7.699504852E0,8.695078108E0
1.940718093E0,-2.798705101E0,2.915953398E0,7.680362701E0,8.678911550E0
1.943192832E0,-2.848954439E0,2.870489836E0,7.680362701E0,8.680105098E0
1.945667311E0,-2.853740215E0,2.834597588E0,7.711469173E0,8.697444079E0
1.948141738E0,-2.815454960E0,2.805883646E0,7.814360619E0,8.767211731E0
1.950616478E0,-2.714956284E0,2.774776936E0,7.931608677E0,8.830673296E0
1.953091009E0,-2.576172590E0,2.734098911E0,8.070392609E0,8.901864913E0
1.955565436E0,-2.427518606E0,2.700599432E0,8.247760773E0,9.011750198E0
1.958040384E0,-2.269592285E0,2.638386011E0,8.446364403E0,9.135272383E0
1.960515228E0,-2.147558212E0,2.590529680E0,8.649754524E0,9.281223175E0
1.962990020E0,-2.018345833E0,2.595315218E0,8.848658562E0,9.439710765E0
1.965464707E0,-1.869691849E0,2.614457846E0,9.054440498E0,9.608019056E0
1.967939134E0,-1.759621978E0,2.659921408E0,9.265308380E0,9.798846400E0
1.970413822E0,-1.695015788E0,2.710170746E0,9.459127426E0,9.984647999E0
1.972888978E0,-1.642373681E0,2.755634308E0,9.617053032E0,1.013797913E1
1.975364343E0,-1.563410521E0,2.832204819E0,9.789336205E0,1.031003103E1
1.977839395E0,-1.467697620E0,2.903989315E0,9.952347755E0,1.047074573E1
1.980314447E0,-1.364507079E0,2.923131943E0,1.007916737E1,1.058282546E1
1.982789707E0,-1.266401410E0,2.947060108E0,1.012702370E1,1.062287837E1
1.985264916E0,-1.149153113E0,2.973381281E0,1.008873844E1,1.058036826E1
1.987740020E0,-1.017547846E0,3.014059305E0,9.954740524E0,1.045068495E1
1.990215332E0,-8.931210637E-1,3.073879719E0,9.748658180E0,1.026073770E1
1.992690905E0,-7.875377536E-1,3.172284603E0,9.487840652E0,1.003507477E1
1.995166426E0,-7.612167001E-1,3.248854876E0,9.241081238E0,9.825074621E0
1.997642311E0,-7.875377536E-1,3.358924866E0,9.032905579E0,9.669331681E0
2.000118509E0,-8.234301209E-1,3.490530014E0,8.863015175E0,9.561112641E0
2.002594291E0,-8.138588071E-1,3.631706476E0,8.745766640E0,9.504740512E0
2.005069603E0,-8.210372925E-1,3.780360699E0,8.633005142E0,9.460127221E0
2.007545176E0,-8.210372925E-1,3.888037682E0,8.544470787E0,9.423317902E0
2.010020593E0,-8.452646136E-1,3.990929127E0,8.506185532E0,9.433831664E0
2.012495593E0,-8.234301209E-1,4.103391647E0,8.477471352E0,9.454278433E0
2.014970697E0,-8.018946648E-1,4.163212299E0,8.484649658E0,9.484969769E0
2.017445488E0,-7.516453862E-1,4.199104786E0,8.542078018E0,9.548012812E0
2.019920124E0,-7.396813035E-1,4.189533234E0,8.594719887E0,9.590022267E0
2.022395176E0,-7.468597889E-1,4.134498596E0,8.642576218E0,9.609682714E0
2.024870020E0,-7.731808424E-1,4.031607151E0,8.709874153E0,9.628788740E0
2.027344447E0,-8.476574421E-1,3.923929930E0,8.776873589E0,9.651386389E0
2.029818822E0,-9.074779749E-1,3.809074640E0,8.793622971E0,9.626025703E0
2.032293509E0,-9.720842242E-1,3.682255030E0,8.882157326E0,9.664195186E0
2.034768457E0,-1.118046403E0,3.555136204E0,9.030512810E0,9.769297968E0
2.037243301E0,-1.271187067E0,3.361317635E0,9.236295700E0,9.910778529E0
2.039717832E0,-1.635195136E0,2.908775091E0,9.346664429E0,9.924463291E0
2.042192520E0,-1.568196177E0,2.743670225E0,9.439984322E0,9.954911830E0
2.044667259E0,6.221338734E-2,2.023131609E0,8.879764557E0,9.107532630E0
2.047142207E0,1.304686546E0,1.642373681E0,8.841479301E0,9.086878151E0
2.049617520E0,9.433703423E-1,1.628016710E0,9.530911446E0,9.714867935E0
2.052092728E0,4.597210586E-1,1.582553029E0,9.978668213E0,1.011383393E1
2.054567728E0,7.178467698E-3,1.537089467E0,1.014616585E1,1.026193827E1
2.057042259E0,-4.860421121E-1,1.479661703E0,1.023230743E1,1.035015706E1
2.059516738E0,-9.744769931E-1,1.326221943E0,1.019880867E1,1.033073900E1
2.061991322E0,-1.568196177E0,1.235294700E0,1.009113121E1,1.028669633E1
2.064465749E0,-2.090130568E0,1.297508121E0,9.878170013E0,1.017990255E1
2.066940072E0,-2.425125837E0,1.453340650E0,9.576375008E0,9.985008395E0
2.069414707E0,-2.607279301E0,1.620838284E0,9.221938133E0,9.719524938E0
2.071889863E0,-2.805883646E0,1.843370795E0,8.927620888E0,9.537998408E0
2.074365280E0,-2.851347208E0,1.982453585E0,8.606683731E0,9.280910945E0
2.076840593E0,-2.731706142E0,1.922333837E0,8.187939644E0,8.843073077E0
2.079315801E0,-2.700599432E0,1.819442511E0,7.833503246E0,8.483359090E0
2.081790697E0,-2.781955481E0,1.721336842E0,7.565207958E0,8.242247768E0
2.084265541E0,-2.760420084E0,1.618445396E0,7.313961506E0,7.983314941E0
2.086740853E0,-2.655135870E0,1.541875124E0,7.065107822E0,7.703432607E0
2.089216061E0,-2.542673111E0,1.515554070E0,6.923632145E0,7.529858748E0
2.091690697E0,-2.465803623E0,1.584945917E0,6.892525673E0,7.489936663E0
2.094165072E0,-2.413161755E0,1.651944876E0,6.954739094E0,7.544578675E0
2.096639707E0,-2.348555326E0,1.742872238E0,7.053143978E0,7.635453866E0
2.099114811E0,-2.283949137E0,1.781157374E0,7.175177574E0,7.737707572E0
2.101589759E0,-2.204986095E0,1.800299883E0,7.323532581E0,7.857300606E0
2.104064707E0,-2.116451740E0,1.754836321E0,7.424031258E0,7.916758086E0
2.106539395E0,-2.049452543E0,1.706979871E0,7.569993496E0,8.026134657E0
2.109013978E0,-2.063809633E0,1.635195136E0,7.744968891E0,8.180324961E0
2.111488926E0,-2.315055847E0,1.213759303E0,7.845467091E0,8.269464861E0
2.113963770E0,-2.458625317E0,8.979067206E-1,7.931608677E0,8.352334472E0
2.116438509E0,-2.461018085E0,7.827520967E-1,8.046463966E0,8.450733295E0
2.118913093E0,-2.432304144E0,7.229315639E-1,8.132605553E0,8.519272655E0
2.121387936E0,-2.417947292E0,6.726822853E-1,8.214261055E0,8.589124242E0
2.123863093E0,-2.394019127E0,6.535396576E-1,8.305188179E0,8.668021248E0
2.126337988E0,-2.341377020E0,6.966105103E-1,8.362615585E0,8.712098024E0
2.128812884E0,-2.262413740E0,7.420741320E-1,8.357830048E0,8.690368983E0
2.131287884E0,-2.226521492E0,7.875377536E-1,8.321938515E0,8.650564971E0
2.133762988E0,-2.212164640E0,8.377870321E-1,8.293224335E0,8.623985701E0
2.136237884E0,-2.264806747E0,9.026923180E-1,8.264510155E0,8.616631077E0
2.138712780E0,-2.319841623E0,9.577272534E-1,8.250153542E0,8.623452911E0
2.141187832E0,-2.389233351E0,9.936196208E-1,8.219046593E0,8.616753614E0
2.143662728E0,-2.475374937E0,1.019940615E0,8.185546875E0,8.612255081E0
2.146137780E0,-2.489732027E0,1.098903775E0,8.140083313E0,8.582966353E0
2.148613249E0,-2.458625317E0,1.175474167E0,8.082356453E0,8.529423415E0
2.151088822E0,-2.389233351E0,1.275972724E0,8.067999840E0,8.510532522E0
2.153563666E0,-2.288734913E0,1.374078393E0,8.075178146E0,8.504992712E0
2.156038353E0,-2.128415823E0,1.527518153E0,8.127820015E0,8.539609114E0
2.158513249E0,-1.936690807E0,1.685444474E0,8.242975235E0,8.633547074E0
2.160988093E0,-1.738086581E0,1.898405671E0,8.388936996E0,8.774916124E0
2.163463041E0,-1.534696579E0,2.056631088E0,8.530113220E0,8.907741384E0
2.165937832E0,-1.347757339E0,2.164308071E0,8.585148811E0,8.955750074E0
2.168412624E0,-1.216152072E0,2.200200319E0,8.566005707E0,8.927281841E0
2.170887416E0,-1.113260746E0,2.188236237E0,8.455936432E0,8.805145556E0
2.173362051E0,-1.012762189E0,2.188236237E0,8.317152023E0,8.659623713E0
2.175836582E0,-9.385846853E-1,2.171486616E0,8.197511673E0,8.532027483E0
2.178310905E0,-8.428717852E-1,2.157129526E0,8.072785378E0,8.398422732E0
2.180785384E0,-7.540382147E-1,2.145165443E0,7.953144073E0,8.271808089E0
2.183260020E0,-6.463612318E-1,2.051845312E0,7.816753387E0,8.107372296E0
2.185734863E0,-5.793621540E-1,1.951047778E0,7.654041290E0,7.920012374E0
2.188209863E0,-5.410770178E-1,1.800299883E0,7.479066372E0,7.711697466E0
2.190684759E0,-5.602195859E-1,1.656730533E0,7.309175968E0,7.515494353E0
2.193159811E0,-6.631109715E-1,1.584945917E0,7.124928474E0,7.329145618E0
2.195634968E0,-8.042874932E-1,1.668694735E0,6.894918442E0,7.139420201E0
2.198110332E0,-8.739784956E-1,1.857727647E0,6.672386169E0,6.981097880E0
2.200585697E0,-1.036690354E0,1.874477386E0,6.775277138E0,7.105826669E0
2.203060749E0,-1.254437327E0,1.723729610E0,7.112964630E0,7.425572207E0
2.205535488E0,-1.496411443E0,1.628016710E0,7.407281399E0,7.730297752E0
2.208010176E0,-1.795514345E0,1.613659739E0,7.673183918E0,8.043974202E0
2.210484863E0,-2.188236237E0,1.721336842E0,7.850253105E0,8.329336838E0
2.212959551E0,-2.683849812E0,1.992024899E0,8.113463402E0,8.774935976E0
2.215434499E0,-2.872882605E0,2.126022816E0,8.113463402E0,8.865760872E0
2.217909447E0,-2.781955481E0,2.274377823E0,7.711469173E0,8.507574718E0
2.220384551E0,-2.528316259E0,2.451446772E0,7.304390430E0,8.109013130E0
2.222859603E0,-2.212164640E0,2.600100994E0,6.985845566E0,7.775360818E0
2.225334447E0,-1.896012783E0,2.714956284E0,6.792026997E0,7.556287635E0
2.227809447E0,-1.568196177E0,2.719742060E0,6.693921566E0,7.393566261E0
2.230284343E0,-1.316650629E0,2.695813894E0,6.677171707E0,7.320218811E0
2.232759238E0,-1.110867858E0,2.643171787E0,6.729813576E0,7.315105964E0
2.235234447E0,-9.864411354E-1,2.568994284E0,6.811169624E0,7.346075782E0
2.237709655E0,-9.433703423E-1,2.492124796E0,6.892525673E0,7.389691722E0
2.240184655E0,-9.577272534E-1,2.396411896E0,6.952346325E0,7.415871553E0
2.242659863E0,-1.027119160E0,2.317448616E0,7.000202656E0,7.445023780E0
2.245134968E0,-1.134796143E0,2.202593327E0,7.002595425E0,7.428022774E0
2.247609707E0,-1.283151150E0,2.099701881E0,6.981060028E0,7.402055389E0
2.250084499E0,-1.429412484E0,1.992024899E0,6.914061069E0,7.335913285E0
2.252559499E0,-1.565803289E0,1.867298961E0,6.863811970E0,7.283574679E0
2.255034603E0,-1.683051586E0,1.733300924E0,6.837490559E0,7.251777153E0
2.257509863E0,-1.754836321E0,1.584945917E0,6.835097790E0,7.232569797E0
2.259985072E0,-1.757229090E0,1.412662625E0,6.863811970E0,7.224637328E0
2.262460124E0,-1.733300924E0,1.256830096E0,6.885347366E0,7.210545218E0
2.264935176E0,-1.678265929E0,1.118046403E0,6.916453838E0,7.204438770E0
2.267410488E0,-1.632802367E0,9.792626500E-1,6.935596466E0,7.192183066E0
2.269886113E0,-1.572981834E0,8.644071817E-1,6.897311211E0,7.127017158E0
2.272361634E0,-1.482054472E0,7.851449251E-1,6.849454880E0,7.051806163E0
2.274837311E0,-1.407876968E0,7.420741320E-1,6.799205780E0,6.982978649E0
2.277312624E0,-1.338186026E0,7.013961077E-1,6.758527756E0,6.925344451E0
2.279788093E0,-1.259222865E0,6.870391965E-1,6.715456963E0,6.866951820E0
2.282264082E0,-1.189831018E0,7.061817646E-1,6.696314335E0,6.837763977E0
2.284740124E0,-1.137188911E0,7.133602500E-1,6.696314335E0,6.829546628E0
2.287215905E0,-1.132403374E0,7.516453862E-1,6.691528320E0,6.828166624E0
2.289691322E0,-1.156331539E0,7.707880139E-1,6.691528320E0,6.834308162E0
2.292166582E0,-1.208973646E0,7.707880139E-1,6.691528320E0,6.843411627E0
2.294642155E0,-1.232901812E0,7.564310431E-1,6.717849731E0,6.871807609E0
2.297117728E0,-1.271187067E0,7.325028181E-1,6.770491600E0,6.927628270E0
2.299593041E0,-1.230509043E0,7.612167001E-1,6.859025955E0,7.009981485E0
2.302068353E0,-1.170688510E0,8.066803217E-1,7.009773731E0,7.152494145E0
2.304543718E0,-1.046261668E0,8.763712645E-1,7.191927433E0,7.320280751E0
2.307019082E0,-9.361918569E-1,9.625129104E-1,7.416852951E0,7.537412951E0
2.309494395E0,-8.138588071E-1,1.077368379E0,7.654041290E0,7.772222131E0
2.311969655E0,-7.325028181E-1,1.165902853E0,7.936394691E0,8.054951927E0
2.314444863E0,-6.272186637E-1,1.240080357E0,8.242975235E0,8.359296817E0
2.316920124E0,-5.338985324E-1,1.345364571E0,8.568398476E0,8.689793203E0
2.319395541E0,-4.477569461E-1,1.438983679E0,8.932407379E0,9.058645699E0
2.321870905E0,-3.496512175E-1,1.539482236E0,9.339486122E0,9.471972474E0
2.324346113E0,-2.488535494E-1,1.623231053E0,9.724730492E0,9.862413005E0
2.326821270E0,-1.268195957E-1,1.695015788E0,1.005045319E1,1.019317276E1
2.329296374E0,-1.028913707E-1,1.735693693E0,1.031844902E1,1.046391941E1
2.331771634E0,-1.555334777E-1,1.785943031E0,1.052931690E1,1.068083787E1
2.334246843E0,-2.850449979E-1,1.785943031E0,1.071834946E1,1.086986008E1
2.336721895E0,-4.286143482E-1,1.778764486E0,1.090259743E1,1.105505966E1
2.339196895E0,-5.937191248E-1,1.783550143E0,1.110628605E1,1.126424180E1
2.341672207E0,-7.253243923E-1,1.785943031E0,1.131206894E1,1.147512927E1
2.344147572E0,-7.827520967E-1,1.778764486E0,1.152532959E1,1.168802490E1
2.346622363E0,-8.186444640E-1,1.726122379E0,1.173829079E1,1.189273509E1
2.349097155E0,-8.428717852E-1,1.687837243E0,1.192493057E1,1.207324300E1
2.351572416E0,-8.691928387E-1,1.613659739E0,1.209990597E1,1.223793767E1
2.354047676E0,-1.137188911E0,1.213759303E0,1.221715450E1,1.232985298E1
2.356522728E0,-1.709372640E0,3.400799036E-1,1.217647648E1,1.230057676E1
2.358997832E0,-1.886441588E0,9.810572863E-2,1.243968678E1,1.258229286E1
2.361472884E0,-1.836192250E0,1.746760458E-1,1.283480167E1,1.296665908E1
2.363947780E0,-1.766800404E0,3.209373355E-1,1.316740417E1,1.328928580E1
2.366422728E0,-1.718943954E0,4.310071766E-1,1.346680546E1,1.358290782E1
2.368897728E0,-1.666301847E0,5.243272781E-1,1.378056431E1,1.389083992E1
2.371373093E0,-1.594517231E0,6.008976102E-1,1.410838127E1,1.421091078E1
2.373848197E0,-1.565803289E0,6.894320250E-1,1.440539074E1,1.450663086E1
2.376322884E0,-1.584945917E0,7.540382147E-1,1.467338657E1,1.477798703E1
2.378797572E0,-1.711765528E0,7.205387354E-1,1.487946892E1,1.499492956E1
2.381272468E0,-1.929512382E0,7.037889361E-1,1.500628853E1,1.514618871E1
2.383747311E0,-2.183450699E0,6.200401783E-1,1.504218006E1,1.521246488E1
2.386221895E0,-2.425125837E0,5.338985324E-1,1.500150204E1,1.520563535E1
2.388696738E0,-2.628814697E0,4.692923427E-1,1.490818214E1,1.514545466E1
2.391171738E0,-2.762812853E0,4.286143482E-1,1.481456280E1,1.507607761E1
2.393646686E0,-2.827419043E0,4.621138871E-1,1.472363567E1,1.499977650E1
2.396121738E0,-2.834597588E0,5.147559643E-1,1.465902996E1,1.493944700E1
2.398596999E0,-2.817847729E0,6.463612318E-1,1.463270855E1,1.491556932E1
2.401072416E0,-2.760420084E0,8.090731502E-1,1.458245945E1,1.486346669E1
2.403547572E0,-2.686242580E0,1.003190875E0,1.453221035E1,1.481240793E1
2.406022155E0,-2.573779821E0,1.192223907E0,1.447956848E1,1.475478376E1
2.408496843E0,-2.472982168E0,1.359721422E0,1.442931843E1,1.470271109E1
2.410971791E0,-2.379662037E0,1.575374603E0,1.435514164E1,1.463607489E1
2.413446791E0,-2.300698996E0,1.785943031E0,1.423041534E1,1.452540978E1
2.415921686E0,-2.164308071E0,1.941476464E0,1.407727432E1,1.437439434E1
2.418396582E0,-2.066202402E0,2.102094650E0,1.385234928E1,1.416247065E1
2.420871634E0,-1.975275040E0,2.307877541E0,1.352184105E1,1.385886704E1
2.423346218E0,-1.886441588E0,2.523231506E0,1.277498055E1,1.315771587E1
2.425820332E0,-1.831406593E0,2.755634308E0,1.197757244E1,1.242617448E1
2.428294707E0,-1.824228168E0,3.083451033E0,1.100100231E1,1.156968152E1
2.430769238E0,-1.867298961E0,3.437887907E0,9.830313683E0,1.058021483E1
2.433244186E0,-1.922333837E0,3.782753468E0,8.594719887E0,9.585082217E0
2.435719186E0,-1.934298038E0,4.067499161E0,7.486244678E0,8.736699475E0
2.438194030E0,-1.912762642E0,4.304687977E0,6.772884369E0,8.249906798E0
2.440668926E0,-1.891227245E0,4.469792843E0,6.428019047E0,8.054515343E0
2.443143718E0,-1.862513304E0,4.539184570E0,6.502495766E0,8.145894890E0
2.445618145E0,-1.790728688E0,4.560719967E0,6.911668301E0,8.472191839E0
2.448092520E0,-1.632802367E0,4.543970108E0,7.498209000E0,8.918343238E0
2.450567207E0,-1.398006678E0,4.529613495E0,8.130212784E0,9.411279456E0
2.453042155E0,-1.134796143E0,4.479363918E0,8.774480820E0,9.916853183E0
2.455516738E0,-8.090731502E-1,4.448257446E0,9.303593636E0,1.034400542E1
2.457991113E0,-5.027918816E-1,4.405186653E0,9.705587387E0,1.067037467E1
2.460465749E0,-2.826521695E-1,4.340580463E0,1.000020409E1,1.090525620E1
2.462940176E0,-1.435693651E-1,4.266402721E0,1.017966557E1,1.103849606E1
2.465414603E0,-1.124626622E-1,4.156033993E0,1.029930687E1,1.110679920E1
2.467889447E0,-1.866401732E-1,4.084249020E0,1.034955597E1,1.112785844E1
2.470363978E0,-3.233301640E-1,3.983750582E0,1.037348461E1,1.111683382E1
2.472838041E0,-4.764707983E-1,3.897608995E0,1.042403316E1,1.113906853E1
2.475312155E0,-6.391827464E-1,3.873680830E0,1.046231747E1,1.117470557E1
2.477786426E0,-7.995018363E-1,3.847359657E0,1.049820995E1,1.120954021E1
2.480261218E0,-9.337990284E-1,3.780360699E0,1.057478046E1,1.126894358E1
2.482736270E0,-1.060618639E0,3.696611881E0,1.067049313E1,1.134236637E1
2.485211374E0,-1.175474167E0,3.569493294E0,1.078295612E1,1.141907022E1
2.487686426E0,-1.278365493E0,3.425923824E0,1.089302635E1,1.149039579E1
2.490161374E0,-1.410269856E0,3.253640652E0,1.099382401E1,1.155158884E1
2.492636218E0,-1.525125384E0,3.083451033E0,1.108235836E1,1.160397969E1
2.495110905E0,-1.635195136E0,2.927917719E0,1.112303638E1,1.161759458E1
2.497585541E0,-1.726122379E0,2.779562712E0,1.118285656E1,1.165168435E1
2.500060384E0,-1.800299883E0,2.604886532E0,1.120439243E1,1.164323509E1
2.502535384E0,-1.876870275E0,2.453839540E0,1.119242764E1,1.161096064E1
2.505010384E0,-2.001596212E0,2.293520451E0,1.113739300E1,1.154591470E1
2.507485749E0,-2.126022816E0,2.164308071E0,1.106082249E1,1.146935031E1
2.509960957E0,-2.250449657E0,2.018345833E0,1.098185921E1,1.139032375E1
2.512436009E0,-2.382055044E0,1.879263043E0,1.089302635E1,1.130768937E1
2.514911113E0,-2.492124796E0,1.773978829E0,1.078056335E1,1.120616942E1
2.517386166E0,-2.571387053E0,1.663909078E0,1.066331482E1,1.109445392E1
2.519861270E0,-2.633600473E0,1.544267893E0,1.054128075E1,1.097448015E1
2.522336061E0,-2.698206663E0,1.438983679E0,1.040728283E1,1.084723601E1
2.524811113E0,-2.741277456E0,1.335793257E0,1.027537823E1,1.071831813E1
2.527286478E0,-2.803490877E0,1.307079315E0,1.014138031E1,1.060262288E1
2.529761634E0,-2.860918522E0,1.247258782E0,9.995418549E0,1.047133713E1
2.532236947E0,-2.903989315E0,1.206580877E0,9.847063065E0,1.033700355E1
2.534712103E0,-2.942274570E0,1.170688510E0,9.712766647E0,1.021593496E1
2.537187207E0,-2.994916677E0,1.139581800E0,9.583553314E0,1.010508123E1
2.539662103E0,-3.037987471E0,1.115653515E0,9.475876808E0,1.001330574E1
2.542136634E0,-3.059522867E0,1.091725349E0,9.399306297E0,9.944822939E0
2.544611738E0,-3.047558784E0,1.072582722E0,9.308379173E0,9.853119865E0
2.547087311E0,-2.994916677E0,1.043868899E0,9.245866776E0,9.774724580E0
2.549562832E0,-2.901596546E0,1.005583763E0,9.217152596E0,9.715264443E0
2.552038145E0,-2.808276415E0,1.031904817E0,9.217152596E0,9.690569949E0
2.554513457E0,-2.712563515E0,1.015154958E0,9.212367058E0,9.656927421E0
2.556988718E0,-2.612065077E0,9.912267923E-1,9.250652313E0,9.663331865E0
2.559463770E0,-2.494517565E0,9.577272534E-1,9.291629791E0,9.668207877E0
2.561939030E0,-2.377269268E0,9.098708034E-1,9.329915047E0,9.670914581E0
2.564414186E0,-2.255235434E0,8.931210637E-1,9.370592117E0,9.679449815E0
2.566888978E0,-2.140379906E0,8.691928387E-1,9.404091835E0,9.683680373E0
2.569364134E0,-2.032702923E0,9.026923180E-1,9.437591553E0,9.696126490E0
2.571839238E0,-1.931905150E0,9.314061999E-1,9.480662346E0,9.720222916E0
2.574314395E0,-1.855334878E0,9.553344250E-1,9.530911446E0,9.756700485E0
2.576789863E0,-1.785943031E0,9.984052777E-1,9.569196701E0,9.785495956E0
2.579265541E0,-1.690230131E0,1.051047325E0,9.602696419E0,9.806801563E0
2.581741061E0,-1.589731574E0,1.103689432E0,9.607481956E0,9.800463580E0
2.584216426E0,-1.503589988E0,1.146760225E0,9.629017830E0,9.812941773E0
2.586692103E0,-1.422233939E0,1.208973646E0,9.645767212E0,9.824723495E0
2.589167832E0,-1.321436286E0,1.259222865E0,9.662516594E0,9.833415633E0
2.591643405E0,-1.230509043E0,1.316650629E0,9.734301567E0,9.899714561E0
2.594118718E0,-1.120439172E0,1.371685624E0,9.851848602E0,1.000978652E1
2.596593978E0,-9.840483069E-1,1.434198022E0,1.000498962E1,1.015505256E1
2.599068978E0,-8.330013752E-1,1.498804331E0,1.012941647E1,1.027352830E1
2.601543561E0,-7.420741320E-1,1.527518153E0,1.026102161E1,1.040060336E1
2.604018041E0,-6.678966284E-1,1.539482236E0,1.039053345E1,1.052517348E1
2.606492884E0,-6.152545214E-1,1.498804331E0,1.049342442E1,1.061776382E1
2.608968041E0,-6.272186637E-1,1.462911963E0,1.056520939E1,1.068443560E1
2.611443145E0,-6.894320250E-1,1.376471281E0,1.062502956E1,1.073597890E1
2.613918405E0,-7.827520967E-1,1.273579836E0,1.065374374E1,1.075811146E1
2.616393509E0,-9.290133715E-1,1.134796143E0,1.064895821E1,1.074947157E1
2.618868561E0,-1.098903775E0,9.888339639E-1,1.061306572E1,1.071552827E1
2.621343561E0,-1.268794179E0,8.162516356E-1,1.051256752E1,1.062027218E1
2.623818509E0,-1.383649707E0,6.726822853E-1,1.038574791E1,1.049908318E1
2.626293561E0,-1.520339727E0,5.171487927E-1,1.023470020E1,1.035992104E1
2.628768926E0,-1.628016710E0,3.616153300E-1,1.005763149E1,1.019495735E1
2.631244707E0,-1.738086581E0,2.321037948E-1,9.899705887E0,1.005380494E1
2.633720436E0,-1.838585138E0,1.196411327E-1,9.741479874E0,9.914188794E0
2.636196009E0,-1.929512382E0,3.349951655E-2,9.600303650E0,9.792342438E0
2.638671113E0,-2.018345833E0,-5.982056633E-2,9.468698502E0,9.681608839E0
2.641145853E0,-2.094916344E0,-1.244267747E-1,9.356235504E0,9.588706864E0
2.643620541E0,-2.159522533E0,-1.698904037E-1,9.243474007E0,9.493903941E0
2.646095436E0,-2.216950178E0,-2.368894368E-1,9.133403778E0,9.401598230E0
2.648570593E0,-2.238485575E0,-3.017947674E-1,9.044869423E0,9.322637000E0
2.651045853E0,-2.250449657E0,-3.616153300E-1,8.975478172E0,9.260372440E0
2.653521322E0,-2.233700037E0,-4.190430641E-1,8.908478737E0,9.193802606E0
2.655996791E0,-2.219342947E0,-4.668995142E-1,8.858229637E0,9.143943929E0
2.658472155E0,-2.219342947E0,-4.645066857E-1,8.812766075E0,9.099785463E0
2.660947780E0,-2.171486616E0,-4.884349108E-1,8.750552177E0,9.029179708E0
2.663423197E0,-2.137987137E0,-5.099703074E-1,8.712266922E0,8.985246442E0
2.665898509E0,-2.082952023E0,-4.764707983E-1,8.666504860E0,8.926030475E0
2.668373770E0,-1.994417667E0,-4.429712892E-1,8.654540062E0,8.892411882E0
2.670848718E0,-1.924726725E0,-3.711866140E-1,8.664112091E0,8.883084531E0
2.673323353E0,-1.836192250E0,-3.161516786E-1,8.692825317E0,8.890262418E0
2.675798197E0,-1.754836321E0,-2.679961324E-1,8.774480820E0,8.952250337E0
2.678273249E0,-1.659123421E0,-1.938186288E-1,8.863015175E0,9.019051734E0
2.680748249E0,-1.572981834E0,-1.363908947E-1,8.958727837E0,9.096794973E0
2.683223041E0,-1.491625786E0,-7.657032460E-2,9.006584167E0,9.129587552E0
2.685698145E0,-1.491625786E0,4.785645287E-3,9.075976372E0,9.197734367E0
2.688173197E0,-1.508375525E0,6.460621208E-2,9.135796547E0,9.259705678E0
2.690647936E0,-1.532303810E0,1.339980662E-1,9.183652878E0,9.311572941E0
2.693122936E0,-1.582553029E0,2.033899277E-1,9.233902931E0,9.370741961E0
2.695598093E0,-1.639980793E0,2.464607358E-1,9.241081238E0,9.388709301E0
2.698073301E0,-1.706979871E0,2.946162820E-1,9.236295700E0,9.397326071E0
2.700548613E0,-1.750050664E0,3.400799036E-1,9.224330902E0,9.395031254E0
2.703023926E0,-1.797907114E0,4.094717801E-1,9.190832138E0,9.373981679E0
2.705498978E0,-1.802692771E0,4.597210586E-1,9.154939651E0,9.342053559E0
2.707973822E0,-1.797907114E0,5.075774789E-1,9.111868858E0,9.301411666E0
2.710448509E0,-1.778764486E0,5.338985324E-1,9.059226990E0,9.247629123E0
2.712923301E0,-1.757229090E0,5.721837282E-1,8.987442017E0,9.175476134E0
2.715398353E0,-1.723729610E0,5.889334679E-1,8.920442581E0,9.104525372E0
2.717873405E0,-1.663909078E0,5.937191248E-1,8.872586250E0,9.046760889E0
2.720348197E0,-1.608874083E0,5.937191248E-1,8.846264839E0,9.010958873E0
2.722823041E0,-1.522732496E0,5.841478109E-1,8.819944382E0,8.969468313E0
2.725298197E0,-1.407876968E0,5.554339290E-1,8.858229637E0,8.986593165E0
2.727773197E0,-1.328614831E0,4.884349108E-1,8.910871506E0,9.022605889E0
2.730247936E0,-1.275972724E0,4.190430641E-1,8.937192917E0,9.037539528E0
2.732722832E0,-1.204187989E0,3.424727321E-1,8.968298912E0,9.055260441E0
2.735198301E0,-1.132403374E0,2.826521695E-1,9.004191399E0,9.079520494E0
2.737673666E0,-1.103689432E0,2.057827413E-1,9.037691116E0,9.107158592E0
2.740148249E0,-1.096511006E0,1.100698411E-1,9.059226990E0,9.126009282E0
2.742622936E0,-1.134796143E0,-7.178467698E-3,9.035298347E0,9.106285194E0
2.745097936E0,-1.197009563E0,-1.555334777E-1,8.987442017E0,9.068138539E0
2.747572624E0,-1.266401410E0,-2.775674164E-1,8.913264275E0,9.007058134E0
2.750047468E0,-1.362114310E0,-4.046861231E-1,8.858229637E0,8.971474715E0
2.752522155E0,-1.448554993E0,-5.123631358E-1,8.791230202E0,8.924491919E0
2.754996738E0,-1.527518153E0,-6.080760360E-1,8.733802795E0,8.887203128E0
2.757471686E0,-1.565803289E0,-6.631109715E-1,8.700303078E0,8.864915665E0
2.759946791E0,-1.570588946E0,-7.133602500E-1,8.697610855E0,8.867021319E0
2.762421218E0,-1.522732496E0,-7.492526174E-1,8.678468704E0,8.842845288E0
2.764895332E0,-1.434198022E0,-7.277171612E-1,8.683254242E0,8.830934292E0
2.767369811E0,-1.311864972E0,-7.013961077E-1,8.740981102E0,8.866662102E0
2.769844447E0,-1.165902853E0,-6.463612318E-1,8.781659126E0,8.882266001E0
2.772319395E0,-9.816554785E-1,-5.650052428E-1,8.848658562E0,8.920854037E0
2.774794343E0,-8.234301209E-1,-4.860421121E-1,8.915657043E0,8.966783962E0
2.777269238E0,-6.918248534E-1,-3.975076675E-1,8.956335068E0,8.991805815E0
2.779744030E0,-5.434698462E-1,-3.376871049E-1,8.977870941E0,9.000642127E0
2.782218978E0,-4.334000051E-1,-2.536391914E-1,8.982656479E0,8.996681934E0
2.784694291E0,-3.424727321E-1,-1.531406492E-1,8.970691681E0,8.978532668E0
2.787169655E0,-2.751746178E-1,-3.828516230E-2,8.949156761E0,8.953468242E0
2.789645072E0,-2.632105052E-1,7.417750359E-2,8.903693199E0,8.907891707E0
2.792120280E0,-2.751746178E-1,1.579262912E-1,8.867800713E0,8.873474588E0
2.794595332E0,-3.017947674E-1,2.129612118E-1,8.815158844E0,8.822893970E0
2.797070488E0,-3.735794425E-1,2.153540403E-1,8.752944946E0,8.763560018E0
2.799545645E0,-4.668995142E-1,2.057827413E-1,8.678468704E0,8.693455052E0
2.802020593E0,-6.152545214E-1,1.698904037E-1,8.582756042E0,8.606457004E0
2.804495488E0,-7.755736113E-1,1.028913707E-1,8.465507507E0,8.501583289E0
2.806970697E0,-9.625129104E-1,-4.785645287E-3,8.379365921E0,8.434466625E0
2.809445853E0,-1.175474167E0,-1.028913707E-1,8.300402641E0,8.383854135E0
2.811920645E0,-1.354935765E0,-1.890329868E-1,8.266902924E0,8.379335794E0
2.814395593E0,-1.517946839E0,-3.113660514E-1,8.252546310E0,8.396763188E0
2.816870853E0,-1.675873160E0,-4.405784607E-1,8.290831566E0,8.469979237E0
2.819346113E0,-1.776371717E0,-5.913262963E-1,8.403293610E0,8.609326731E0
2.821821218E0,-1.879263043E0,-7.372884750E-1,8.549256325E0,8.784361536E0
2.824296166E0,-1.955833435E0,-8.979067206E-1,8.750552177E0,9.011308690E0
2.826771061E0,-1.987239242E0,-1.082154036E0,9.001798630E0,9.281840105E0
2.829246009E0,-2.047059774E0,-1.283151150E0,9.255437851E0,9.565566392E0
2.831721061E0,-2.116451740E0,-1.462911963E0,9.502198219E0,9.844351191E0
2.834196166E0,-2.123630047E0,-1.620838284E0,9.763015747E0,1.012192659E1
2.836671270E0,-2.102094650E0,-1.783550143E0,1.003848934E1,1.041014511E1
2.839146270E0,-2.068595171E0,-1.912762642E0,1.031366348E1,1.069155748E1
2.841621270E0,-2.003988981E0,-2.015953064E0,1.058913708E1,1.096402584E1
2.844096426E0,-1.946262121E0,-2.145165443E0,1.087149048E1,1.125073225E1
2.846571634E0,-1.845763564E0,-2.281556368E0,1.113978577E1,1.151985979E1
2.849046478E0,-1.730908036E0,-2.401197433E0,1.138624668E1,1.176471016E1
2.851521166E0,-1.647159338E0,-2.520838737E0,1.156840038E1,1.195389682E1
2.853996270E0,-1.608874083E0,-2.659921408E0,1.170718384E1,1.211287790E1
2.856471218E0,-1.592124343E0,-2.829811811E0,1.179811096E1,1.223675272E1
2.858945853E0,-1.592124343E0,-2.956631422E0,1.183161068E1,1.229892437E1
2.861420905E0,-1.596910000E0,-3.090928555E0,1.179811096E1,1.230038142E1
2.863895801E0,-1.587338686E0,-3.205784082E0,1.171675491E1,1.225067514E1
2.866370436E0,-1.596910000E0,-3.320639610E0,1.162104225E1,1.219120142E1
2.868845072E0,-1.587338686E0,-3.421138287E0,1.150349522E1,1.210595859E1
2.871319968E0,-1.537089467E0,-3.504886866E0,1.139821053E1,1.202356350E1
2.873794759E0,-1.498804331E0,-3.567100286E0,1.131924725E1,1.196227307E1
2.876269499E0,-1.400399446E0,-3.583850145E0,1.124985600E1,1.188967453E1
2.878744499E0,-1.323829174E0,-3.591028690E0,1.122832012E1,1.186268028E1
2.881219603E0,-1.247258782E0,-3.567100286E0,1.122832012E1,1.184715289E1
2.883694655E0,-1.189831018E0,-3.516851187E0,1.121396351E1,1.181257456E1
2.886169707E0,-1.161117196E0,-3.468994617E0,1.124267673E1,1.182285486E1
2.888644863E0,-1.130010486E0,-3.409173965E0,1.130967617E1,1.186626167E1
2.891120176E0,-1.072582722E0,-3.366103172E0,1.137667561E1,1.191259133E1
2.893595541E0,-1.060618639E0,-3.313461065E0,1.146042442E1,1.197686370E1
2.896070593E0,-1.051047325E0,-3.289532900E0,1.157557869E1,1.207972471E1
2.898545697E0,-1.039083242E0,-3.248854876E0,1.167846966E1,1.216640479E1
2.901021218E0,-1.053440213E0,-3.234498024E0,1.178136158E1,1.226263407E1
2.903496738E0,-1.082154036E0,-3.258426189E0,1.185075283E1,1.233810120E1
2.905971686E0,-1.113260746E0,-3.315854073E0,1.189861012E1,1.240206275E1
2.908446478E0,-1.156331539E0,-3.413959742E0,1.196082306E1,1.249213801E1
2.910921582E0,-1.230509043E0,-3.528815269E0,1.200867939E1,1.257676709E1
2.913396947E0,-1.354935765E0,-3.631706476E0,1.204696465E1,1.265521632E1
2.915872155E0,-1.472483277E0,-3.749253988E0,1.207597733E1,1.273005659E1
2.918346895E0,-1.592124343E0,-3.866502285E0,1.205892849E1,1.276332465E1
2.920821843E0,-1.702194214E0,-3.978965044E0,1.203739357E1,1.279173452E1
2.923296999E0,-1.793121457E0,-4.096213341E0,1.198475170E1,1.279173646E1
2.925771895E0,-1.884048700E0,-4.208974838E0,1.193210888E1,1.279219805E1
2.928246895E0,-2.018345833E0,-4.295116425E0,1.186989594E1,1.278343360E1
2.930722103E0,-2.159522533E0,-4.400400639E0,1.181725407E1,1.279353575E1
2.933197416E0,-2.303091764E0,-4.493721008E0,1.171675491E1,1.275853071E1
2.935672832E0,-2.420340061E0,-4.575077057E0,1.159232807E1,1.269533167E1
2.938148249E0,-2.552244425E0,-4.577469826E0,1.144128132E1,1.258451826E1
2.940623874E0,-2.657528639E0,-4.642076015E0,1.128814125E1,1.249133544E1
2.943099186E0,-2.767598391E0,-4.706682205E0,1.111585712E1,1.238445549E1
2.945574134E0,-2.834597588E0,-4.781158924E0,1.090738297E1,1.224195357E1
2.948049291E0,-2.911167860E0,-4.903192520E0,1.080449200E1,1.221692443E1
2.950524655E0,-2.937488794E0,-5.080261707E0,1.072552872E1,1.222599140E1
2.952999759E0,-2.853740215E0,-5.195116997E0,1.065374374E1,1.219160898E1
2.955474759E0,-2.760420084E0,-5.312365532E0,1.061067295E1,1.218308364E1
2.957949759E0,-2.698206663E0,-5.403591633E0,1.056281662E1,1.216767096E1
2.960424916E0,-2.628814697E0,-5.470590591E0,1.053649521E1,1.215959536E1
2.962900332E0,-2.559422970E0,-5.508875847E0,1.050060272E1,1.213099405E1
2.965375801E0,-2.484946251E0,-5.551946640E0,1.041924667E1,1.206481540E1
2.967851322E0,-2.422732830E0,-5.539982796E0,1.032084274E1,1.196164030E1
2.970326843E0,-2.343769789E0,-5.475376606E0,1.022512913E1,1.183326969E1
2.972802259E0,-2.283949137E0,-5.441876888E0,1.012702370E1,1.172122249E1
2.975277884E0,-2.238485575E0,-5.370092392E0,1.002413273E1,1.159016596E1
2.977753457E0,-2.173879385E0,-5.262115955E0,9.909276962E0,1.142844634E1
2.980229030E0,-2.114058733E0,-5.156831741E0,9.758230209E0,1.123766945E1
2.982704603E0,-2.066202402E0,-5.034798145E0,9.667302132E0,1.109392245E1
2.985179655E0,-2.006381750E0,-4.910371304E0,9.605089188E0,1.097246793E1
2.987654863E0,-1.960619092E0,-4.793122768E0,9.516554832E0,1.083433750E1
2.990130593E0,-1.939083695E0,-4.656432629E0,9.432806015E0,1.069673968E1
2.992606061E0,-1.912762642E0,-4.512863636E0,9.315557480E0,1.052635788E1
2.995081166E0,-1.876870275E0,-4.362115860E0,9.198010445E0,1.035152612E1
2.997556270E0,-1.848156333E0,-4.184747696E0,9.085547447E0,1.017226462E1
3.000031738E0,-1.824228168E0,-4.002892971E0,8.977870941E0,9.997656084E0
3.002507624E0,-1.807478428E0,-3.840181351E0,8.853444099E0,9.818219976E0
3.004983457E0,-1.745265007E0,-3.687040567E0,8.752944946E0,9.656824702E0
3.007459030E0,-1.678265929E0,-3.526422262E0,8.673683167E0,9.512360915E0
3.009934655E0,-1.618445396E0,-3.394817114E0,8.573184013E0,9.361817818E0
3.012410176E0,-1.580160260E0,-3.282354355E0,8.455936432E0,9.207258957E0
3.014885384E0,-1.537089467E0,-3.169891834E0,8.319544792E0,9.034693344E0
3.017360124E0,-1.513161182E0,-3.069094181E0,8.154440880E0,8.843297005E0
3.019835436E0,-1.472483277E0,-2.949453115E0,7.972286701E0,8.626983014E0
3.022311113E0,-1.455733418E0,-2.825026274E0,7.759325504E0,8.384930859E0
3.024786686E0,-1.429412484E0,-2.702992201E0,7.529315472E0,8.126498530E0
3.027261999E0,-1.412662625E0,-2.592922449E0,7.275676250E0,7.852026963E0
3.029737363E0,-1.415055513E0,-2.494517565E0,7.007380962E0,7.571551224E0
3.032212988E0,-1.458126307E0,-2.401197433E0,6.729813576E0,7.292617651E0
3.034688509E0,-1.525125384E0,-2.353341103E0,6.478567123E0,7.059465543E0
3.037163874E0,-1.596910000E0,-2.329412937E0,6.243771553E0,6.852807409E0
3.039639343E0,-1.687837243E0,-2.312663078E0,6.047560215E0,6.691052954E0
3.042114603E0,-1.730908036E0,-2.331805706E0,5.872584820E0,6.551382522E0
3.044589811E0,-1.771586061E0,-2.307877541E0,5.712265968E0,6.410522475E0
3.047065541E0,-1.790728688E0,-2.322234392E0,5.587839127E0,6.310580632E0
3.049540853E0,-1.781157374E0,-2.293520451E0,5.542375565E0,6.257050787E0
3.052015749E0,-1.745265007E0,-2.271985054E0,5.525625706E0,6.224179100E0
3.054490801E0,-1.671087503E0,-2.157129526E0,5.597410202E0,6.227097414E0
3.056965593E0,-1.335793257E0,-1.618445396E0,5.616552830E0,5.995779750E0
3.059440384E0,-1.264008522E0,-1.462911963E0,5.994917870E0,6.298957788E0
3.061915488E0,-1.491625786E0,-1.766800404E0,6.713063717E0,7.100123634E0
3.064390384E0,-1.668694735E0,-2.082952023E0,7.060322285E0,7.547938925E0
3.066865124E0,-1.716551185E0,-2.248056889E0,7.213462830E0,7.748183899E0
3.069340436E0,-1.589731574E0,-2.068595171E0,7.438388348E0,7.882636213E0
3.071816218E0,-1.644766450E0,-2.252842426E0,7.505387306E0,8.006959116E0
3.074291895E0,-1.750050664E0,-2.446661234E0,7.407281399E0,7.994788693E0
3.076767520E0,-1.860120535E0,-2.650350094E0,7.285247803E0,7.972404880E0
3.079242988E0,-1.912762642E0,-2.801098108E0,7.163213730E0,7.925682461E0
3.081718509E0,-1.980060697E0,-2.918346405E0,7.115357399E0,7.941391378E0
3.084194291E0,-2.102094650E0,-3.049951553E0,7.072286606E0,7.983623503E0
3.086670124E0,-2.190629244E0,-3.122035265E0,7.134500027E0,8.089935186E0
3.089145541E0,-2.257628202E0,-3.110071182E0,7.266105175E0,8.219836511E0
3.091620541E0,-2.276770830E0,-3.045166016E0,7.467102051E0,8.379399412E0
3.094095593E0,-2.295913219E0,-2.985345364E0,7.656434059E0,8.532554539E0
3.096570905E0,-2.334198475E0,-2.961417198E0,7.840681553E0,8.700273648E0
3.099046166E0,-2.327019930E0,-2.923131943E0,7.957930088E0,8.791380631E0
3.101521270E0,-2.269592285E0,-2.915953398E0,8.015357971E0,8.826086152E0
3.103996738E0,-2.197807550E0,-2.903989315E0,8.067999840E0,8.851899987E0
3.106471947E0,-2.121237278E0,-2.920739174E0,8.123034477E0,8.888984983E0
3.108947103E0,-2.068595171E0,-2.956631422E0,8.152048111E0,8.914967400E0
3.111422416E0,-2.037488461E0,-3.009273529E0,8.168797493E0,8.940712437E0
3.113897520E0,-1.977667928E0,-3.028416157E0,8.180761337E0,8.944681711E0
3.116372363E0,-1.927119493E0,-3.035594702E0,8.216653824E0,8.968947809E0
3.118847259E0,-1.898405671E0,-3.042773008E0,8.264510155E0,9.009136461E0
3.121322363E0,-1.867298961E0,-3.047558784E0,8.338687897E0,9.072383137E0
3.123797416E0,-1.860120535E0,-3.059522867E0,8.432007790E0,9.160757826E0
3.126272311E0,-1.872084618E0,-3.052344322E0,8.561220169E0,9.279870552E0
3.128747311E0,-1.924726725E0,-3.059522867E0,8.685647011E0,9.407747719E0
3.131222468E0,-2.020738840E0,-3.093321562E0,8.819944382E0,9.562606477E0
3.133697936E0,-2.123630047E0,-3.112463951E0,8.951549530E0,9.712233286E0
3.136173457E0,-2.214557409E0,-3.124428272E0,9.071190834E0,9.846462293E0
3.138648666E0,-2.298306227E0,-3.119642496E0,9.200403214E0,9.983075684E0
3.141124030E0,-2.379662037E0,-3.126821041E0,9.322735786E0,1.011697602E1
3.143599916E0,-2.449054003E0,-3.148356438E0,9.439984322E0,1.024808849E1
3.146075801E0,-2.542673111E0,-3.193820000E0,9.547661781E0,1.038381039E1
3.148551166E0,-2.667099953E0,-3.296711445E0,9.617053032E0,1.051044421E1
3.151026478E0,-2.808276415E0,-3.428316593E0,9.672088623E0,1.063903517E1
3.153501738E0,-2.920739174E0,-3.579064369E0,9.657731056E0,1.070570821E1
3.155976999E0,-3.030808926E0,-3.725325823E0,9.629017830E0,1.076019701E1
3.158452780E0,-3.090928555E0,-3.840181351E0,9.540482521E0,1.073879131E1
3.160928561E0,-3.117249727E0,-3.959822416E0,9.399306297E0,1.066510189E1
3.163404030E0,-3.110071182E0,-4.077070713E0,9.219545364E0,1.054964763E1
3.165879759E0,-3.052344322E0,-4.184747696E0,9.030512810E0,1.041052740E1
3.168355436E0,-2.966202736E0,-4.295116425E0,8.863015175E0,1.028588459E1
3.170830957E0,-2.875275612E0,-4.407579422E0,8.760123253E0,1.021928205E1
3.173306634E0,-2.781955481E0,-4.493721008E0,8.692825317E0,1.017339751E1
3.175782259E0,-2.655135870E0,-4.536791801E0,8.692825317E0,1.015861400E1
3.178257988E0,-2.559422970E0,-4.599005222E0,8.743373871E0,1.020529674E1
3.180733561E0,-2.439482689E0,-4.634897232E0,8.836693764E0,1.027231740E1
3.183208874E0,-2.334198475E0,-4.685146809E0,8.951549530E0,1.036963462E1
3.185683666E0,-2.236092806E0,-4.730610371E0,9.080761909E0,1.048041136E1
3.188158249E0,-2.145165443E0,-4.785944462E0,9.157332420E0,1.055290179E1
3.190633249E0,-2.068595171E0,-4.843372345E0,9.224330902E0,1.062194061E1
3.193108613E0,-2.027917147E0,-4.924727917E0,9.262915611E0,1.068489582E1
3.195583718E0,-2.037488461E0,-5.003691196E0,9.274879456E0,1.073367010E1
3.198058509E0,-2.070987940E0,-5.073082924E0,9.284450531E0,1.078082479E1
3.200533718E0,-2.094916344E0,-5.159224510E0,9.277272224E0,1.082007634E1
3.203009030E0,-2.137987137E0,-5.266901970E0,9.250652313E0,1.085752336E1
3.205484343E0,-2.193022013E0,-5.391627789E0,9.195617676E0,1.088293987E1
3.207959916E0,-2.219342947E0,-5.470590591E0,9.150154114E0,1.088936017E1
3.210435384E0,-1.996810555E0,-5.470590591E0,9.585947037E0,1.121628256E1
3.212910905E0,-1.630409479E0,-5.370092392E0,1.023709393E1,1.167451153E1
3.215386270E0,-1.529910922E0,-5.370092392E0,1.032802105E1,1.174080655E1
3.217861426E0,-1.594517231E0,-5.429912567E0,1.015573788E1,1.162606759E1
3.220336530E0,-1.663909078E0,-5.465805054E0,1.004806042E1,1.155885533E1
3.222811634E0,-1.678265929E0,-5.441876888E0,1.004327488E1,1.154547404E1
3.225287051E0,-1.642373681E0,-5.358128071E0,1.012463093E1,1.157216830E1
3.227762520E0,-1.632802367E0,-5.274080276E0,1.027059269E1,1.166049058E1
3.230237676E0,-1.718943954E0,-5.197509766E0,1.041206837E1,1.176350474E1
3.232712780E0,-1.778764486E0,-5.120939732E0,1.057956600E1,1.188760883E1
3.235187676E0,-1.805085540E0,-5.003691196E0,1.078534889E1,1.202576443E1
3.237662676E0,-1.821835399E0,-4.924727917E0,1.097946644E1,1.217048530E1
3.240138301E0,-1.826620936E0,-4.840979099E0,1.118285656E1,1.232184660E1
3.242614186E0,-1.778764486E0,-4.744967461E0,1.136710358E1,1.244547159E1
3.245089811E0,-1.632802367E0,-4.632504463E0,1.161625671E1,1.261204033E1
3.247564916E0,-1.479661703E0,-4.539184570E0,1.182443237E1,1.275189383E1
3.250040072E0,-1.311864972E0,-4.417150497E0,1.184836006E1,1.271282205E1
3.252515541E0,-1.137188911E0,-4.271188259E0,1.183639622E1,1.263473479E1
3.254990853E0,-1.101296663E0,-4.146462440E0,1.167129135E1,1.243483200E1
3.257466009E0,-1.094118118E0,-4.041178226E0,1.139342499E1,1.213830091E1
3.259941478E0,-1.146760225E0,-3.943072557E0,1.106560802E1,1.180298950E1
3.262417051E0,-1.208973646E0,-3.871287823E0,1.071595669E1,1.145775783E1
3.264892624E0,-1.304686546E0,-3.811467409E0,1.040010452E1,1.115310113E1
3.267368145E0,-1.453340650E0,-3.777967930E0,1.018684387E1,1.096161616E1
3.269843613E0,-1.582553029E0,-3.785146236E0,1.002173901E1,1.082899159E1
3.272319238E0,-1.690230131E0,-3.780360699E0,9.892526627E0,1.072427564E1
3.274794916E0,-1.840977907E0,-3.844966888E0,9.786943436E0,1.067507526E1
3.277270488E0,-2.025524378E0,-3.883252144E0,9.669695854E0,1.061533863E1
3.279746009E0,-2.224128723E0,-3.921537161E0,9.545269012E0,1.055638967E1
3.282221478E0,-2.461018085E0,-3.981357813E0,9.413662910E0,1.051308087E1
3.284696895E0,-2.750848770E0,-4.043570995E0,9.298808098E0,1.050644885E1
3.287172207E0,-3.018844843E0,-4.105784416E0,9.159725189E0,1.048195857E1
3.289647780E0,-3.241676569E0,-4.117748737E0,9.047262192E0,1.045549018E1
3.292123197E0,-3.217748165E0,-3.847359657E0,8.915657043E0,1.022961486E1
3.294598457E0,-3.287140131E0,-3.660719633E0,8.970691681E0,1.023129844E1
3.297073509E0,-3.622135162E0,-3.833002806E0,9.317950249E0,1.070681888E1
3.299548718E0,-4.000500202E0,-4.148855209E0,9.600303650E0,1.119744755E1
3.302024082E0,-4.268795490E0,-4.412364960E0,9.700801849E0,1.148029338E1
3.304499551E0,-4.476971149E0,-4.625326157E0,9.691230774E0,1.163429700E1
3.306974811E0,-4.541577339E0,-4.582255363E0,9.691230774E0,1.164229113E1
3.309450072E0,-4.567898273E0,-4.400400639E0,9.691230774E0,1.158227846E1
3.311925645E0,-4.744967461E0,-4.575077057E0,9.473484039E0,1.154092484E1
3.314400853E0,-4.919942379E0,-4.740181446E0,9.142974854E0,1.141355082E1
3.316875228E0,-5.032404900E0,-4.929513931E0,8.836693764E0,1.130098949E1
3.319349551E0,-5.089832783E0,-5.051547527E0,8.618648529E0,1.121185233E1
3.321824499E0,-5.152046204E0,-5.197509766E0,8.463114738E0,1.118847617E1
3.324299863E0,-5.211866856E0,-5.321936607E0,8.381758690E0,1.121340466E1
3.326775332E0,-5.245366573E0,-5.410770416E0,8.376973152E0,1.126782970E1
3.329250801E0,-5.219045162E0,-5.429912567E0,8.365009308E0,1.125592127E1
3.331726166E0,-5.173581600E0,-5.389235020E0,8.326724052E0,1.118678390E1
3.334201322E0,-5.192724228E0,-5.379663467E0,8.159226418E0,1.106698422E1
3.336676738E0,-5.216652393E0,-5.377270699E0,7.890930653E0,1.088095993E1
3.339152103E0,-5.219045162E0,-5.321936607E0,7.594220638E0,1.064112911E1
3.341627363E0,-5.312365532E0,-5.298008442E0,7.345067978E0,1.049953068E1
3.344102728E0,-5.386841774E0,-5.159224510E0,7.220641613E0,1.038139331E1
3.346578041E0,-5.496912003E0,-5.058726311E0,7.136892796E0,1.033160163E1
3.349053405E0,-5.611767292E0,-5.027619362E0,7.110571384E0,1.035997654E1
3.351528561E0,-5.733801365E0,-5.030012131E0,7.141678333E0,1.044897457E1
3.354003770E0,-5.889334679E0,-5.044369221E0,7.242177010E0,1.061032759E1
3.356478874E0,-6.030810356E0,-5.106582642E0,7.397710323E0,1.082469297E1
3.358953874E0,-6.160022736E0,-5.130510807E0,7.589435101E0,1.103936350E1
3.361428874E0,-6.181558132E0,-5.106582642E0,7.713861942E0,1.112620840E1
3.363904082E0,-6.183950901E0,-5.111368179E0,7.761718273E0,1.116295678E1
3.366379395E0,-6.021239281E0,-5.080261707E0,7.747361660E0,1.104925311E1
3.368854291E0,-5.839085579E0,-5.065904617E0,7.692326546E0,1.090551226E1
3.371329603E0,-5.743372440E0,-5.118546963E0,7.639684677E0,1.084207692E1
3.373805072E0,-5.740979671E0,-5.202295303E0,7.558029652E0,1.082342535E1
3.376280280E0,-5.750551224E0,-5.276473045E0,7.419245720E0,1.076825029E1
3.378755957E0,-5.848656654E0,-5.329114914E0,7.177570820E0,1.068287290E1
3.381231686E0,-6.021239281E0,-5.391627789E0,6.818347931E0,1.057425369E1
3.383707416E0,-6.088238239E0,-5.358128071E0,6.507281303E0,1.039811960E1
3.386183249E0,-6.138487339E0,-5.293222904E0,6.217450619E0,1.021547491E1
3.388658874E0,-6.167201042E0,-5.202295303E0,5.908776283E0,1.000059410E1
3.391134238E0,-6.107380867E0,-5.056333542E0,5.738586903E0,9.787644741E0
3.393609291E0,-5.990132332E0,-4.917549610E0,5.681159019E0,9.609346873E0
3.396084291E0,-5.894419670E0,-4.790730000E0,5.717051506E0,9.506837282E0
3.398559707E0,-5.803193092E0,-4.697110653E0,5.827121258E0,9.470757135E0
3.401034968E0,-5.671587944E0,-4.599005222E0,5.994917870E0,9.447581654E0
3.403510020E0,-5.599802971E0,-4.498506546E0,6.198307991E0,9.487537953E0
3.405984968E0,-5.547161102E0,-4.393222332E0,6.418447495E0,9.553421743E0
3.408459603E0,-5.501697540E0,-4.295116425E0,6.672386169E0,9.655953506E0
3.410934603E0,-5.429912567E0,-4.148855209E0,6.940382004E0,9.739910287E0
3.413409759E0,-5.307579517E0,-3.993321896E0,7.215855598E0,9.807425356E0
3.415884863E0,-5.132903576E0,-3.828217030E0,7.526922703E0,9.882130849E0
3.418360280E0,-5.030012131E0,-3.708575964E0,7.826324463E0,1.001528394E1
3.420835541E0,-4.927121162E0,-3.655933857E0,8.082356453E0,1.014725880E1
3.423310749E0,-4.905585289E0,-3.622135162E0,8.207082748E0,1.022452138E1
3.425785801E0,-4.869693279E0,-3.612564087E0,8.219046593E0,1.021358208E1
3.428260853E0,-4.840979099E0,-3.576671600E0,8.149654388E0,1.013136343E1
3.430735697E0,-4.831408024E0,-3.567100286E0,7.965108395E0,9.975452856E0
3.433210749E0,-4.814658165E0,-3.562314749E0,7.711469173E0,9.764106535E0
3.435686218E0,-4.785944462E0,-3.571886063E0,7.469494820E0,9.563314661E0
3.438161374E0,-4.737788677E0,-3.602992773E0,7.220641613E0,9.357663372E0
3.440636218E0,-4.716253281E0,-3.689433336E0,7.017251492E0,9.224791697E0
3.443111270E0,-4.694717884E0,-3.794717550E0,6.832705021E0,9.117352423E0
3.445586374E0,-4.711467743E0,-3.878466368E0,6.677171707E0,9.045720074E0
3.448061166E0,-4.735395908E0,-3.943072557E0,6.478567123E0,8.941120040E0
3.450536166E0,-4.713860512E0,-3.940679789E0,6.313163280E0,8.809396615E0
3.453011426E0,-4.510470867E0,-3.727718592E0,6.157629967E0,8.494506469E0
3.455486582E0,-4.366901398E0,-3.500101328E0,6.045167446E0,8.237996515E0
3.457961634E0,-4.496113777E0,-3.378067255E0,6.128916264E0,8.318052178E0
3.460436791E0,-4.666004181E0,-3.337389469E0,6.399304867E0,8.594234478E0
3.462911999E0,-4.749752998E0,-3.299104214E0,6.775277138E0,8.907784374E0
3.465387259E0,-4.680361271E0,-3.303889751E0,7.146463871E0,9.159334854E0
3.467862468E0,-4.529613495E0,-3.392424345E0,7.502994537E0,9.397918300E0
3.470337311E0,-4.323830605E0,-3.586242914E0,7.811967850E0,9.622031543E0
3.472811895E0,-4.184747696E0,-3.823431492E0,8.015357971E0,9.817163799E0
3.475286426E0,-4.158426762E0,-4.084249020E0,8.125427246E0,9.999808554E0
3.477761374E0,-4.230510235E0,-4.316651821E0,8.087141991E0,1.009616587E1
3.480236791E0,-4.409972191E0,-4.536791801E0,8.012965202E0,1.020969862E1
3.482711843E0,-4.515256405E0,-4.682754040E0,7.788039684E0,1.014737838E1
3.485186530E0,-4.496113777E0,-4.670789719E0,7.706683636E0,1.007096263E1
3.487661530E0,-4.371686935E0,-4.594219685E0,7.512565613E0,9.831436480E0
3.490136686E0,-4.366901398E0,-4.589433670E0,7.311568737E0,9.674283778E0
3.492611947E0,-4.364508629E0,-4.594219685E0,7.189534664E0,9.583590077E0
3.495087311E0,-4.314259052E0,-4.615755081E0,7.077072144E0,9.486989842E0
3.497562572E0,-4.201497555E0,-4.630111694E0,6.904489517E0,9.314638560E0
3.500037988E0,-4.072285175E0,-4.639683247E0,6.760920525E0,9.155337979E0
3.502513353E0,-3.878466368E0,-4.603790760E0,6.571887493E0,8.912188056E0
3.504988509E0,-3.763610840E0,-4.560719967E0,6.432804585E0,8.737614548E0
3.507463561E0,-3.682255030E0,-4.515256405E0,6.315556049E0,8.592600929E0
3.509938405E0,-3.634099483E0,-4.424329281E0,6.286842346E0,8.503279093E0
3.512413561E0,-3.516851187E0,-4.278367043E0,6.365805626E0,8.437780993E0
3.514888874E0,-3.193820000E0,-3.998107433E0,6.389733791E0,8.186210794E0
3.517364238E0,-2.796312332E0,-3.993321896E0,6.325127602E0,7.985813772E0
3.519839655E0,-2.549851656E0,-4.247260094E0,6.380162239E0,8.077588252E0
3.522315020E0,-2.348555326E0,-4.405186653E0,6.370591164E0,8.093566170E0
3.524790228E0,-2.039881229E0,-4.553541660E0,6.358626842E0,8.082573378E0
3.527265436E0,-1.900798440E0,-4.639683247E0,6.423233509E0,8.148473725E0
3.529740749E0,-1.747657895E0,-4.646861553E0,6.387341022E0,8.089855113E0
3.532216061E0,-1.695015788E0,-4.589433670E0,6.305984974E0,7.981317336E0
3.534691478E0,-1.680658817E0,-4.460221291E0,6.265306950E0,7.872246134E0
3.537166530E0,-1.714158297E0,-4.290330887E0,6.215057850E0,7.744173414E0
3.539641843E0,-1.946262121E0,-4.148855209E0,6.219843388E0,7.725761293E0
3.542117728E0,-2.327019930E0,-3.962215185E0,6.303592205E0,7.800605465E0
3.544593405E0,-2.851347208E0,-3.746861219E0,6.521637917E0,8.043687650E0
3.547068978E0,-3.320639610E0,-3.638885021E0,6.792026997E0,8.390456623E0
3.549544343E0,-3.591028690E0,-3.528815269E0,6.847062111E0,8.498840145E0
3.552019551E0,-3.969393730E0,-3.476173162E0,6.792026997E0,8.600668414E0
3.554494655E0,-4.225724697E0,-3.452244759E0,6.897311211E0,8.794750993E0
3.556969551E0,-4.304687977E0,-3.258426189E0,7.036394119E0,8.868963976E0
3.559444291E0,-3.911965847E0,-2.271985054E0,7.364210606E0,8.642742083E0
3.561919238E0,-3.500101328E0,-1.259222865E0,7.649255753E0,8.505731309E0
3.564394343E0,-3.488137245E0,-1.144367456E0,7.654041290E0,8.488876627E0
3.566869447E0,-3.646063566E0,-1.374078393E0,7.711469173E0,8.639943737E0
3.569344759E0,-3.756432533E0,-1.654337764E0,7.560422421E0,8.602767345E0
3.571819968E0,-3.708575964E0,-1.833799481E0,7.402495861E0,8.480171059E0
3.574295020E0,-3.480958700E0,-1.884048700E0,7.323532581E0,8.324712755E0
3.576770488E0,-3.318246841E0,-2.047059774E0,7.127321243E0,8.124033723E0
3.579245957E0,-3.253640652E0,-2.181057930E0,6.894918442E0,7.929885970E0
3.581721113E0,-3.339782238E0,-2.405983210E0,6.660421848E0,7.829694745E0
3.584196061E0,-3.569493294E0,-2.681456804E0,6.260521412E0,7.689318651E0
3.586670905E0,-3.816252947E0,-2.990130901E0,5.810371399E0,7.567369765E0
3.589146113E0,-4.129712582E0,-3.248854876E0,5.523232937E0,7.623364486E0
3.591621061E0,-4.498506546E0,-3.507279873E0,5.185545921E0,7.708920790E0
3.594095749E0,-4.888835907E0,-3.907180309E0,4.718646049E0,7.837882050E0
3.596570905E0,-5.262115955E0,-4.203890324E0,4.436293125E0,8.064939856E0
3.599045853E0,-5.702694416E0,-4.539184570E0,4.223331928E0,8.423862104E0
3.601521009E0,-6.131309032E0,-4.788337231E0,4.146462440E0,8.815570013E0
3.603996634E0,-6.569494724E0,-4.986941338E0,4.177569389E0,9.245535725E0
3.606472259E0,-6.909275532E0,-5.185545921E0,4.201497555E0,9.606276936E0
3.608947884E0,-7.141678333E0,-5.360520840E0,4.433900356E0,9.969865870E0
3.611422988E0,-7.368996620E0,-5.530411243E0,4.594219685E0,1.029535887E1
3.613897624E0,-7.606184959E0,-5.700301647E0,4.891228676E0,1.068978982E1
3.616372572E0,-7.701898098E0,-5.853442192E0,5.178367138E0,1.097257973E1
3.618847832E0,-7.706683636E0,-6.028417587E0,5.583053589E0,1.126522431E1
3.621323041E0,-7.644470215E0,-6.107380867E0,5.980561256E0,1.146756900E1
3.623797832E0,-7.716254711E0,-6.219843388E0,6.325127602E0,1.175730742E1
3.626272468E0,-7.785646915E0,-6.495316982E0,6.696314335E0,1.215096977E1
3.628747468E0,-7.733004570E0,-6.856633186E0,7.230212688E0,1.261303904E1
3.631222416E0,-7.321139812E0,-6.928418159E0,7.534101009E0,1.258430548E1
3.633697155E0,-6.981060028E0,-6.981060028E0,7.627720356E0,1.247607775E1
3.636171843E0,-6.763313293E0,-7.024429798E0,7.701898098E0,1.242595087E1
3.638647103E0,-6.602993965E0,-7.014858723E0,7.670791149E0,1.231457710E1
3.641122728E0,-6.557530403E0,-6.923632145E0,7.646862984E0,1.222343653E1
3.643598093E0,-6.574280262E0,-6.892525673E0,7.658827305E0,1.222234457E1
3.646073041E0,-6.622136593E0,-6.961917400E0,7.618149281E0,1.226202208E1
3.648547832E0,-6.646064758E0,-7.022037029E0,7.445566654E0,1.220309975E1
3.651022468E0,-6.567101955E0,-7.079464912E0,7.294818878E0,1.210206734E1
3.653497311E0,-6.495316982E0,-7.072286606E0,7.084250450E0,1.193285318E1
3.655972520E0,-6.461817741E0,-7.203891754E0,6.856633186E0,1.186020926E1
3.658447676E0,-6.411269188E0,-7.414460182E0,6.696314335E0,1.187094007E1
3.660922624E0,-6.337091446E0,-7.682755470E0,6.729813576E0,1.201972755E1
3.663397624E0,-6.286842346E0,-7.926823139E0,6.993024349E0,1.229883333E1
3.665872884E0,-6.222236156E0,-8.118248940E0,7.371389389E0,1.260791696E1
3.668347936E0,-6.267699718E0,-8.233403206E0,7.800003529E0,1.295812653E1
3.670822624E0,-6.246164322E0,-8.293224335E0,8.137690544E0,1.319144215E1
3.673297728E0,-6.150451660E0,-8.400900841E0,8.398508072E0,1.337677571E1
3.675773197E0,-6.057131290E0,-8.451150894E0,8.549256325E0,1.346107628E1
3.678248509E0,-6.061916828E0,-8.479864120E0,8.690432549E0,1.357123977E1
3.680723561E0,-6.014060497E0,-8.446364403E0,8.805587769E0,1.360324855E1
3.683198509E0,-5.997310638E0,-8.422436714E0,8.554041862E0,1.341927000E1
3.685673509E0,-5.985346794E0,-8.477471352E0,8.343473434E0,1.331560910E1
3.688148353E0,-5.925526142E0,-8.496614456E0,8.127820015E0,1.316684379E1
3.690623197E0,-5.822335720E0,-8.460721970E0,7.783253670E0,1.288652192E1
3.693097884E0,-5.595017433E0,-8.276473999E0,7.550850868E0,1.252276290E1
3.695572468E0,-5.360520840E0,-8.036892891E0,7.299604416E0,1.210830523E1
3.698047363E0,-5.077868938E0,-7.783253670E0,7.012166977E0,1.164191893E1
3.700522311E0,-4.706682205E0,-7.495816231E0,6.710670948E0,1.110734995E1
3.702997103E0,-4.345366001E0,-7.115357399E0,6.538387775E0,1.059533064E1
3.705472051E0,-4.014857292E0,-6.758527756E0,6.413661957E0,1.014553282E1
3.707946791E0,-3.663112402E0,-6.413661957E0,6.310770512E0,9.714899722E0
3.710421113E0,-3.401995659E0,-6.030810356E0,6.404090881E0,9.431682142E0
3.712895593E0,-3.253640652E0,-5.671587944E0,6.547959328E0,9.253586259E0
3.715369811E0,-3.203391314E0,-5.334199905E0,6.753741741E0,9.183051347E0
3.717843770E0,-3.069094181E0,-4.967798710E0,7.275676250E0,9.329192249E0
3.720318197E0,-3.083451033E0,-4.646861553E0,7.663612843E0,9.477972060E0
3.722792624E0,-3.196212769E0,-4.441078663E0,7.788039684E0,9.518010185E0
3.725267155E0,-3.394817114E0,-4.287938118E0,7.821538925E0,9.543985944E0
3.727742051E0,-3.710968733E0,-4.256831646E0,7.814360619E0,9.641376275E0
3.730217051E0,-4.031607151E0,-4.268795490E0,7.802396297E0,9.764930063E0
3.732691895E0,-4.283152580E0,-4.331008911E0,7.790432453E0,9.889078421E0
3.735166791E0,-4.476971149E0,-4.409972191E0,7.771289825E0,9.994201866E0
3.737641686E0,-4.613361835E0,-4.438685894E0,7.697112083E0,1.001152208E1
3.740116530E0,-4.716253281E0,-4.472185612E0,7.620542049E0,1.001579504E1
3.742591270E0,-4.737788677E0,-4.476971149E0,7.464709282E0,9.910186521E0
3.745066009E0,-4.797908306E0,-4.436293125E0,7.471887589E0,9.926214029E0
3.747540957E0,-4.800301552E0,-4.366901398E0,7.613363266E0,1.000380043E1
3.750015697E0,-4.821836948E0,-4.340580463E0,7.931608677E0,1.024700769E1
3.752490749E0,-4.848157883E0,-4.357329845E0,8.072785378E0,1.037597330E1
3.754965801E0,-4.840979099E0,-4.481756687E0,8.103892326E0,1.044960729E1
3.757440801E0,-4.735395908E0,-4.622933388E0,8.072785378E0,1.043864700E1
3.759916009E0,-4.673182487E0,-4.721039295E0,8.101499557E0,1.047669517E1
3.762391113E0,-4.584648132E0,-4.752145767E0,8.175975800E0,1.050944662E1
3.764866218E0,-4.436293125E0,-4.761716843E0,8.171190262E0,1.044619521E1
3.767341166E0,-4.216153622E0,-4.725824833E0,8.115856171E0,1.029448848E1
3.769816113E0,-3.921537161E0,-4.680361271E0,7.907680511E0,9.990778068E0
3.772290957E0,-3.629313707E0,-4.689932346E0,7.654041290E0,9.682547778E0
3.774765853E0,-3.385245800E0,-4.713860512E0,7.419245720E0,9.419425519E0
3.777240697E0,-2.994916677E0,-4.756931305E0,7.017251492E0,8.991092250E0
3.779715436E0,-2.386840582E0,-5.051547527E0,6.634100914E0,8.673317435E0
3.782190228E0,-1.980060697E0,-5.221437931E0,6.301199436E0,8.419570581E0
3.784665176E0,-1.673480392E0,-5.278865814E0,5.956633091E0,8.133169043E0
3.787139916E0,-1.434198022E0,-5.343770981E0,5.561518192E0,7.844953592E0
3.789614759E0,-1.268794179E0,-5.427519798E0,5.202295303E0,7.624413830E0
3.792089655E0,-1.096511006E0,-5.535196781E0,4.874478817E0,7.456626820E0
3.794564343E0,-1.027119160E0,-5.776872158E0,4.479363918E0,7.381864725E0
3.797039134E0,-1.127617717E0,-6.061916828E0,4.129712582E0,7.421110655E0
3.799514186E0,-1.517946839E0,-6.389733791E0,3.962215185E0,7.670202716E0
3.801989447E0,-2.102094650E0,-6.811169624E0,3.967000723E0,8.157691359E0
3.804464447E0,-2.626421928E0,-7.199106216E0,4.230510235E0,8.753424433E0
3.806939238E0,-3.042773008E0,-7.488637447E0,4.687539577E0,9.344045467E0
3.809413718E0,-3.368496180E0,-7.663612843E0,5.276473045E0,9.895397724E0
3.811887988E0,-3.552743435E0,-7.706683636E0,5.896812439E0,1.033379676E1
3.814362728E0,-3.598206997E0,-7.646862984E0,6.512066841E0,1.066904971E1
3.816837624E0,-3.504886866E0,-7.447959423E0,7.055536747E0,1.084144503E1
3.819312780E0,-3.308675528E0,-7.139285564E0,7.507780075E0,1.087582152E1
3.821788041E0,-3.102892876E0,-6.801598549E0,7.840681553E0,1.083355778E1
3.824262832E0,-2.937488794E0,-6.449554443E0,8.101499557E0,1.076382311E1
3.826737728E0,-2.865704298E0,-6.116951942E0,8.271688461E0,1.067942846E1
3.829212936E0,-2.750848770E0,-5.819942951E0,8.355437279E0,1.054761760E1
3.831687884E0,-2.516052961E0,-5.528018475E0,8.338687897E0,1.031616337E1
3.834162624E0,-2.197807550E0,-5.209474087E0,8.123034477E0,9.897103991E0
3.836637363E0,-2.011167526E0,-5.032404900E0,7.943572998E0,9.616145063E0
3.839112259E0,-1.907976985E0,-4.924727917E0,7.790432453E0,9.411915801E0
3.841587311E0,-2.018345833E0,-4.898406982E0,7.632505894E0,9.291031002E0
3.844062155E0,-2.267199516E0,-4.900799751E0,7.553243637E0,9.284908254E0
3.846536634E0,-2.590529680E0,-4.934299469E0,7.505387306E0,9.348208058E0
3.849011270E0,-2.887239695E0,-5.008476734E0,7.471887589E0,9.447226915E0
3.851486166E0,-3.157927752E0,-5.140082359E0,7.450352192E0,9.586485390E0
3.853961113E0,-3.452244759E0,-5.281258583E0,7.428816795E0,9.746640707E0
3.856436322E0,-3.835395575E0,-5.401198864E0,7.481459141E0,9.992769349E0
3.858911426E0,-4.156033993E0,-5.494519234E0,7.550850868E0,1.022143380E1
3.861386530E0,-4.340580463E0,-5.508875847E0,7.639684677E0,1.037078270E1
3.863861686E0,-4.469792843E0,-5.456233978E0,7.704290867E0,1.044536428E1
3.866336582E0,-4.601397991E0,-5.350949764E0,7.723433495E0,1.046216764E1
3.868811634E0,-4.718646049E0,-5.159224510E0,7.728219032E0,1.042154439E1
3.871286530E0,-4.802694321E0,-4.970191956E0,7.733004570E0,1.037150136E1
3.873761270E0,-4.781158924E0,-4.721039295E0,7.735397339E0,1.024617317E1
3.876236113E0,-4.677968502E0,-4.453042984E0,7.761718273E0,1.009738836E1
3.878711009E0,-4.476971149E0,-4.228117466E0,7.869395256E0,9.992378579E0
3.881186166E0,-4.295116425E0,-4.067499161E0,8.034500122E0,9.977262487E0
3.883661270E0,-4.165605068E0,-3.978965044E0,8.147261620E0,9.978091015E0
3.886136166E0,-4.017250061E0,-3.938287020E0,8.276473999E0,1.000741848E1
3.888610801E0,-3.840181351E0,-3.974179268E0,8.396115303E0,1.005165886E1
3.891085280E0,-3.658326626E0,-4.072285175E0,8.482256889E0,1.009532279E1
3.893560332E0,-3.346960783E0,-4.146462440E0,8.489435196E0,1.002326330E1
3.896035593E0,-3.155534744E0,-4.316651821E0,8.537292480E0,1.007354185E1
3.898510749E0,-3.059522867E0,-4.517649174E0,8.527720451E0,1.012382587E1
3.900985749E0,-3.040380239E0,-4.673182487E0,8.479864120E0,1.014843052E1
3.903460749E0,-3.073879719E0,-4.781158924E0,8.424829483E0,1.016297048E1
3.905935905E0,-3.124428272E0,-4.845765114E0,8.348258972E0,1.014578333E1
3.908411322E0,-3.133999348E0,-4.778766155E0,7.562815189E0,9.479173565E0
3.910886374E0,-3.246462107E0,-4.666004181E0,6.995417118E0,9.013710217E0
3.913361166E0,-3.557528973E0,-4.555934429E0,6.985845566E0,9.067226102E0
3.915836113E0,-3.940679789E0,-4.481756687E0,7.246962547E0,9.387947931E0
3.918310957E0,-4.223331928E0,-4.388436794E0,7.306783199E0,9.512307333E0
3.920786061E0,-4.354937077E0,-4.223331928E0,7.218248844E0,9.428951474E0
3.923261322E0,-4.388436794E0,-4.079463482E0,7.163213730E0,9.338738177E0
3.925736322E0,-4.395615101E0,-3.926322937E0,7.177570820E0,9.287355210E0
3.928211218E0,-4.347758770E0,-3.777967930E0,7.184749126E0,9.208510629E0
3.930686270E0,-4.283152580E0,-3.636492252E0,7.242177010E0,9.166166034E0
3.933161218E0,-4.211368084E0,-3.512065411E0,7.359425068E0,9.177764538E0
3.935635853E0,-4.132105827E0,-3.428316593E0,7.502994537E0,9.226189910E0
3.938110749E0,-4.031607151E0,-3.406781197E0,7.584649563E0,9.240504496E0
3.940585697E0,-3.878466368E0,-3.442673683E0,7.618149281E0,9.215785475E0
3.943060176E0,-3.825824261E0,-3.521636724E0,7.627720356E0,9.231520694E0
3.945534603E0,-3.940679789E0,-3.576671600E0,7.579864025E0,9.261526633E0
3.948009343E0,-4.093820572E0,-3.622135162E0,7.407281399E0,9.205815973E0
3.950484395E0,-4.244867325E0,-3.622135162E0,7.215855598E0,9.121805400E0
3.952959707E0,-4.424329281E0,-3.605385542E0,7.136892796E0,9.138311292E0
3.955435020E0,-4.603790760E0,-3.528815269E0,7.127321243E0,9.189457801E0
3.957909916E0,-4.725824833E0,-3.418745279E0,7.182356358E0,9.252431166E0
3.960384759E0,-4.747360229E0,-3.284747362E0,7.263712406E0,9.278389532E0
3.962859707E0,-4.661218643E0,-3.150749207E0,7.299604416E0,9.216203363E0
3.965334551E0,-4.608576298E0,-3.033201694E0,7.452745438E0,9.272685834E0
3.967809707E0,-4.639683247E0,-2.899203777E0,7.637291908E0,9.394693761E0
3.970284759E0,-4.634897232E0,-2.772384167E0,7.725826263E0,9.426387313E0
3.972759759E0,-4.484149456E0,-2.669492722E0,7.733004570E0,9.329155772E0
3.975234968E0,-4.469792843E0,-2.561815739E0,7.627720356E0,9.204567658E0
3.977710124E0,-4.764110088E0,-2.441875458E0,7.488637447E0,9.205389264E0
3.980185280E0,-4.927121162E0,-2.322234392E0,7.345067978E0,9.144359962E0
3.982660541E0,-4.910371304E0,-2.181057930E0,7.294818878E0,9.059974752E0
3.985135436E0,-4.970191956E0,-2.099701881E0,7.342675209E0,9.111884289E0
3.987610072E0,-5.128118038E0,-1.941476464E0,7.184749126E0,9.038116258E0
3.990084863E0,-5.312365532E0,-1.881655931E0,7.223034382E0,9.161554577E0
3.992559655E0,-5.535196781E0,-1.864906192E0,7.337889671E0,9.378747429E0
3.995034707E0,-5.736194134E0,-1.855334878E0,7.378567696E0,9.528349904E0
3.997509811E0,-6.002096653E0,-1.876870275E0,7.440781116E0,9.742331850E0
3.999984707E0,-6.169594288E0,-1.965703845E0,7.505387306E0,9.912553854E0
4.002459551E0,-6.176772594E0,-2.080559254E0,7.601399422E0,1.001311738E1
4.004934395E0,-6.097809315E0,-2.190629244E0,7.587042332E0,9.977241416E0
4.007409186E0,-5.935097694E0,-2.346162558E0,7.524529934E0,9.866529994E0
4.009883926E0,-5.788836002E0,-2.564208508E0,7.536494255E0,9.842994117E0
4.012359134E0,-5.798407555E0,-2.834597588E0,7.577471256E0,9.953619658E0
4.014834551E0,-5.879763603E0,-3.107678413E0,7.608577728E0,1.010543122E1
4.017309759E0,-6.006882191E0,-3.437887907E0,7.560422421E0,1.024996069E1
4.019785124E0,-6.138487339E0,-3.703790426E0,7.493422985E0,1.037065467E1
4.022260124E0,-6.267699718E0,-3.902394533E0,7.395317554E0,1.045004615E1
4.024734655E0,-6.411269188E0,-4.136891365E0,7.194320202E0,1.048696743E1
4.027209238E0,-6.567101955E0,-4.429114819E0,6.815955162E0,1.044993449E1
4.029684186E0,-6.736992359E0,-4.697110653E0,6.540780544E0,1.049912971E1
4.032158770E0,-6.801598549E0,-4.927121162E0,6.488138676E0,1.061292652E1
4.034633093E0,-6.775277138E0,-5.068297386E0,6.591030121E0,1.072537630E1
4.037107832E0,-6.669992924E0,-5.130510807E0,6.837490559E0,1.084261149E1
4.039582624E0,-6.509674072E0,-5.159224510E0,7.110571384E0,1.093406052E1
4.042057520E0,-6.253343105E0,-5.175974369E0,7.306783199E0,1.092172566E1
4.044532624E0,-5.966204166E0,-5.171188831E0,7.390532017E0,1.081465439E1
4.047007884E0,-5.695516109E0,-5.166403294E0,7.342675209E0,1.063228602E1
4.049483145E0,-5.401198864E0,-5.077868938E0,7.254140854E0,1.037209052E1
4.051958457E0,-5.154438972E0,-4.965405941E0,7.179963589E0,1.013781902E1
4.054433509E0,-4.936692238E0,-4.907978535E0,7.055536747E0,9.911598374E0
4.056908613E0,-4.814658165E0,-4.843372345E0,6.914061069E0,9.718200934E0
4.059383613E0,-4.773980141E0,-4.797908306E0,6.808776855E0,9.600533983E0
4.061858197E0,-4.848157883E0,-4.802694321E0,6.703492641E0,9.565945912E0
4.064332988E0,-5.082654476E0,-4.886443138E0,6.555137634E0,9.627072892E0
4.066807936E0,-5.413163185E0,-5.008476734E0,6.380162239E0,9.751597052E0
4.069282624E0,-5.719444275E0,-5.183153152E0,6.231807709E0,9.920309810E0
4.071757624E0,-5.913562298E0,-5.338985443E0,6.138487339E0,1.005763448E1
4.074232988E0,-6.054738522E0,-5.453841209E0,6.164808273E0,1.021807729E1
4.076708093E0,-6.112166405E0,-5.585446358E0,6.138487339E0,1.030712453E1
4.079183197E0,-6.119344711E0,-5.635695457E0,6.078666687E0,1.030328257E1
4.081658197E0,-6.083452702E0,-5.662016392E0,6.040381432E0,1.027390063E1
4.084133041E0,-6.076273918E0,-5.721837044E0,6.002096653E0,1.028035447E1
4.086607728E0,-6.174379826E0,-5.755336761E0,5.973382473E0,1.034060760E1
4.089082572E0,-6.272485256E0,-5.740979671E0,5.892026424E0,1.034499368E1
4.091557520E0,-6.389733791E0,-5.640480995E0,5.764907837E0,1.028969806E1
4.094032572E0,-6.461817741E0,-5.559125423E0,5.542375565E0,1.016744269E1
4.096507676E0,-6.543173313E0,-5.492125988E0,5.298008442E0,1.005213700E1
4.098982624E0,-6.669992924E0,-5.441876888E0,5.099404335E0,1.000533629E1
4.101457572E0,-6.736992359E0,-5.444269657E0,4.972584724E0,9.987679259E0
4.103932363E0,-6.796812534E0,-5.446662426E0,4.884049892E0,9.985826734E0
4.106407416E0,-6.921239376E0,-5.528018475E0,4.896014214E0,1.012094353E1
4.108882624E0,-7.081857681E0,-5.597410202E0,4.905585289E0,1.027367881E1
4.111357884E0,-7.352246761E0,-5.733801365E0,5.003691196E0,1.058153751E1
4.113833457E0,-7.711469173E0,-5.994917870E0,5.123332500E0,1.102970231E1
4.116308509E0,-8.259724617E0,-6.389733791E0,5.252544880E0,1.168935312E1
4.118783145E0,-8.958727837E0,-6.911668301E0,5.226223946E0,1.246368244E1
4.121258197E0,-9.664909363E0,-7.285247803E0,5.214259624E0,1.317853603E1
4.123733093E0,-1.024905777E1,-7.493422985E0,5.360520840E0,1.378150053E1
4.126208041E0,-1.083320522E1,-7.728219032E0,5.451447964E0,1.438061159E1
4.128683145E0,-1.123789120E1,-7.881359577E0,5.470590591E0,1.477610872E1
4.131157572E0,-1.137428284E1,-7.843074322E0,5.599802971E0,1.490791462E1
4.133631947E0,-1.133839035E1,-7.838288784E0,5.671587944E0,1.490519294E1
4.136106270E0,-1.119721317E1,-7.780860901E0,5.834300041E0,1.483099579E1
4.138580749E0,-1.090738297E1,-7.536494255E0,6.035595894E0,1.456702326E1
4.141055488E0,-1.049342442E1,-7.309175968E0,6.222236156E0,1.422154113E1
